timestamp,latitude,longitude,speed,accelerometerX,accelerometerY,accelerometerZ,gyroX,gyroY,gyroZ,Class
1492638965,40.44744479,-79.94418866,0,0.016998291,-0.962234497,0.203887939,-0.01699443,0.019258649,0.007239803,Pothole
1492638965,40.44744479,-79.94418866,0,0.050750732,-0.962997437,0.193954468,-0.01808313,0.004372644,0.000869788,Pothole
1492638965,40.44744479,-79.94418866,0,0.037414551,-0.959228516,0.191543579,-0.014992798,-0.009475793,0.000937166,Pothole
1492638965,40.44744479,-79.94418866,0,0.053787231,-0.963851929,0.277252197,-0.046893473,-0.001822135,0.001657019,Pothole
1492638965,40.44744479,-79.94418866,0,0.031646729,-0.95300293,0.271057129,-0.007370565,0.003238404,-0.004348676,Pothole
1492638966,40.44744479,-79.94418866,0,0.038772583,-0.947341919,0.28352356,-0.012811403,-0.008426774,-0.002241849,Pothole
1492638966,40.44744479,-79.94418866,0,0.04447937,-0.947998047,0.278518677,-0.017015735,-0.003081011,-0.003364904,Pothole
1492638966,40.44744479,-79.94418866,0,0.053283691,-0.947143555,0.274276733,-0.021337247,-0.009435047,-0.002326538,Pothole
1492638966,40.44744479,-79.94418866,0,0.048873901,-0.946350098,0.265258789,-0.026718164,-0.007271761,0.002943858,Pothole
1492638966,40.44745352,-79.94418913,0.409999996,0.050888062,-0.936584473,0.29548645,-0.025608158,-0.005151885,0.000817324,Pothole
1492638967,40.44745352,-79.94418913,0.409999996,0.036956787,-0.932571411,0.322357178,-0.026482474,0.006553507,-0.006685333,Pothole
1492638967,40.44745352,-79.94418913,0.409999996,0.053878784,-0.928588867,0.334365845,-0.016963804,-0.002018143,-0.006565757,Pothole
1492638967,40.44745352,-79.94418913,0.409999996,0.069717407,-0.923843384,0.325973511,-0.020331104,-0.009440906,0.001948635,Pothole
1492638967,40.44745352,-79.94418913,0.409999996,0.02684021,-0.934616089,0.354171753,-0.017927335,-0.004140683,-0.015099857,Pothole
1492638967,40.44746546,-79.94418978,1.470000029,0.065338135,-0.943786621,0.332443237,-0.027828169,-0.032795497,-0.007663779,Pothole
1492638968,40.44746546,-79.94418978,1.470000029,0.120620728,-0.899734497,0.317001343,-0.053428338,-0.036883716,-0.006849118,Pothole
1492638968,40.44746546,-79.94418978,1.470000029,0.051376343,-0.909179688,0.344772339,-0.029558159,-0.003002181,-0.020552946,Pothole
1492638968,40.44746546,-79.94418978,1.470000029,0.108840942,-0.875656128,0.398834229,-0.013630325,-0.053091981,0.033050095,Pothole
1492638968,40.44748706,-79.94419096,3.059999943,0.089599609,-0.938659668,0.342697144,-0.044044157,-0.038006238,0.00711064,Pothole
1492638968,40.44748706,-79.94419096,3.059999943,0.040237427,-0.893035889,0.395462036,0.022392657,-0.017167003,-0.011454788,Pothole
1492638969,40.44748706,-79.94419096,3.059999943,0.061813354,-0.947723389,0.404266357,-0.016959809,-0.007337275,-0.009750632,Pothole
1492638969,40.44748706,-79.94419096,3.059999943,0.071990967,-0.906295776,0.350509644,-0.039526903,-0.023145267,-0.003543602,Pothole
1492638969,40.44748706,-79.94419096,3.059999943,0.077072144,-0.918655396,0.363677979,-0.01396535,-0.022247781,-0.00328421,Pothole
1492638969,40.44748706,-79.94419096,3.059999943,0.042266846,-0.934371948,0.330383301,-0.024864337,-0.014727281,0.018975289,Pothole
1492638969,40.44752653,-79.9441931,4.789999962,0.073501587,-0.929916382,0.343215942,-0.016026903,-0.019043732,-0.006512228,Pothole
1492638970,40.44752653,-79.9441931,4.789999962,0.033325195,-0.932235718,0.34979248,-0.024844363,-0.029621009,0.009418003,Pothole
1492638970,40.44752653,-79.9441931,4.789999962,0.090957642,-0.939727783,0.322647095,-0.084209154,0.051599279,-0.043643884,Pothole
1492638970,40.44752653,-79.9441931,4.789999962,0.120605469,-0.916290283,0.320571899,-0.040509077,-0.031650338,-0.01419385,Pothole
1492638970,40.44758119,-79.94419608,6.480000019,0.065841675,-0.937332153,0.236480713,-0.052171858,0.000339287,-0.000535029,Pothole
1492638970,40.44758119,-79.94419608,6.480000019,0.068664551,-0.988800049,0.214096069,-0.010554107,-0.014825818,-0.014996793,Pothole
1492638971,40.44758119,-79.94419608,6.480000019,0.022216797,-0.921157837,0.310745239,-0.007725298,-0.064826667,0.061928615,Pothole
1492638971,40.44758119,-79.94419608,6.480000019,0.055999756,-0.98147583,0.270980835,-0.063070845,-0.062351792,-0.016478043,Pothole
1492638971,40.44758119,-79.94419608,6.480000019,0.115386963,-0.97013855,0.299453735,-0.023350863,-0.023252858,-0.018304705,Pothole
1492638971,40.44758119,-79.94419608,6.480000019,0.085632324,-0.89680481,0.112136841,-0.287364136,-0.176828037,0.046560045,Pothole
1492638971,40.44764584,-79.94419959,7.289999962,0.093658447,-0.908981323,0.299865723,0.067696756,-0.034477017,0.014642859,Pothole
1492638972,40.44764584,-79.94419959,7.289999962,0.043518066,-0.906173706,0.268188477,-0.045947252,-0.015656458,0.002768622,Pothole
1492638972,40.44764584,-79.94419959,7.289999962,-0.036392212,-0.952133179,0.379074097,-0.000101733,-0.09679259,0.032235168,Pothole
1492638972,40.44764584,-79.94419959,7.289999962,0.070770264,-0.905853271,0.27180481,-0.035494345,-0.033806966,0.007187339,Pothole
1492638972,40.44764584,-79.94419959,7.289999962,0.005432129,-0.986602783,0.294540405,0.035216843,-0.098088218,0.018739333,Pothole
1492638972,40.44772178,-79.94420372,8.229999542,0.10005188,-0.893859863,0.233139038,-0.02735386,-0.13809662,0.055519452,Pothole
1492638973,40.44772178,-79.94420372,8.229999542,0.090438843,-0.964645386,0.298248291,0.03119547,0.00511247,-0.01995187,Pothole
1492638973,40.44772178,-79.94420372,8.229999542,0.008117676,-1.01890564,0.337371826,0.004235758,-0.041503501,0.056659817,Pothole
1492638973,40.44772178,-79.94420372,8.229999542,0.122131348,-1.000167847,0.291824341,0.018680477,-0.013945377,0.02794881,Pothole
1492638973,40.44772178,-79.94420372,8.229999542,0.103485107,-0.944854736,0.357315063,-0.010089918,-0.049927613,0.009621468,Pothole
1492638973,40.4478022,-79.9442081,9.569999695,0.083557129,-0.937637329,0.343582153,-0.026210033,-0.018970495,0.0370981,Pothole
1492638974,40.4478022,-79.9442081,9.569999695,0.127914429,-0.91444397,0.248504639,-0.038886946,-0.034846398,0.021016069,Pothole
1492638974,40.4478022,-79.9442081,9.569999695,0.090942383,-0.974761963,0.261230469,-0.025482457,0.094831704,-0.031425833,Pothole
1492638974,40.4478022,-79.9442081,9.569999695,0.113739014,-0.929489136,0.280899048,-0.02713841,0.016127305,-0.031239679,Pothole
1492638974,40.4478022,-79.9442081,9.569999695,0.122283936,-0.972640991,0.224624634,0.001843973,-0.086164979,0.051419515,Pothole
1492638974,40.4478945,-79.94421312,10.72000027,0.045059204,-0.954483032,0.200149536,0.007990549,-0.023449666,0.025731462,Pothole
1492638975,40.4478945,-79.94421312,10.72000027,0.048614502,-0.96005249,0.228271484,0.028972263,-0.043794885,0.037727139,Pothole
1492638975,40.4478945,-79.94421312,10.72000027,0.042388916,-0.956451416,0.313812256,-0.08094758,-0.009047557,-0.004004063,Pothole
1492638975,40.4478945,-79.94421312,10.72000027,0.071685791,-0.936599731,0.286621094,-0.035326566,-0.011469968,0.007131413,Pothole
1492638975,40.4478945,-79.94421312,10.72000027,0.101287842,-0.920181274,0.223190308,-0.002516421,0.05319904,-0.020421119,Pothole
1492638975,40.44799551,-79.94421861,11.43000031,0.062484741,-0.914413452,0.211669922,0.036531912,-0.06086628,0.020789168,Pothole
1492638976,40.44799551,-79.94421861,11.43000031,0.102279663,-0.99810791,0.222045898,0.051447479,-0.069473883,0.015633022,Pothole
1492638976,40.44799551,-79.94421861,11.43000031,-0.007522583,-0.874267578,0.279708862,0.04426733,-0.054537012,0.003792608,Pothole
1492638976,40.44799551,-79.94421861,11.43000031,-0.01020813,-0.923934937,0.315551758,-0.024136495,-0.01472808,0.043505666,Pothole
1492638976,40.44799551,-79.94421861,11.43000031,0.137573242,-1.020065308,0.224853516,-0.037813159,0.093842873,-0.064602163,Pothole
1492638976,40.44809976,-79.94422428,11.94999981,0.127960205,-0.990722656,0.161682129,0.090890492,-0.05164615,0.02238813,Pothole
1492638977,40.44809976,-79.94422428,11.94999981,0.078125,-0.885116577,0.199798584,-0.074615648,-0.068649102,0.045260423,Pothole
1492638977,40.44809976,-79.94422428,11.94999981,0.110473633,-1.002471924,0.156646729,0.027418575,0.073215358,-0.018033862,Pothole
1492638977,40.44809976,-79.94422428,11.94999981,0.120117188,-0.968505859,0.168167114,0.003356648,0.025507757,0.002100968,Pothole
1492638977,40.44820922,-79.94423024,12.13000011,0.086029053,-0.882263184,0.236358643,-0.070620641,0.010025204,-0.047662328,Pothole
1492638977,40.44820922,-79.94423024,12.13000011,0.038085938,-0.928070068,0.1822052,-0.02792138,-0.006198507,0.01359091,Pothole
1492638978,40.44820922,-79.94423024,12.13000011,-0.054962158,-1.05821228,0.174179077,0.008504006,-0.096849581,0.02592614,Pothole
1492638978,40.44820922,-79.94423024,12.13000011,-0.031814575,-0.956756592,0.162994385,0.004653075,-0.013864417,-0.036167858,Pothole
1492638978,40.44820922,-79.94423024,12.13000011,0.092178345,-0.942901611,0.169326782,0.011134144,-0.034107637,0.023658724,Pothole
1492638978,40.44820922,-79.94423024,12.13000011,0.073455811,-0.951431274,0.195999146,0.013985857,0.094574177,-0.036352149,Pothole
1492638978,40.44831656,-79.94423607,11.92000008,0.085418701,-0.973022461,0.182388306,-0.00105328,-0.068064805,0.039614788,Pothole
1492638979,40.44831656,-79.94423607,11.92000008,0.093933105,-0.947174072,0.176803589,-0.010561298,-0.065876219,0.035246937,Pothole
1492638979,40.44831656,-79.94423607,11.92000008,0.084899902,-1.096206665,0.195205688,0.073050242,0.017602163,-0.036615003,Pothole
1492638979,40.44831656,-79.94423607,11.92000008,0.087173462,-0.928970337,0.191604614,-0.044508346,-0.002904443,-0.017507621,Pothole
1492638979,40.44831656,-79.94423607,11.92000008,0.048065186,-0.960525513,0.216323853,-0.040808683,-0.030581079,0.008190818,Pothole
1492638979,40.44838162,-79.94423961,11.71000004,0.157745361,-1.017166138,0.12588501,0.011526161,0.070126358,-0.0256521,Pothole
1492638980,40.44838162,-79.94423961,11.71000004,0.167800903,-1.013000488,0.125106812,-0.137284623,0.122154139,-0.017714016,Pothole
1492638980,40.44838162,-79.94423961,11.71000004,0.091522217,-0.891693115,0.192901611,-0.077038859,0.016462597,0.035420042,Pothole
1492638980,40.44838162,-79.94423961,11.71000004,0.168777466,-0.944671631,0.105331421,-0.019520971,0.119253158,-0.064480456,Pothole
1492638980,40.44838162,-79.94423961,11.71000004,0.148529053,-0.921600342,0.214782715,0.046270293,0.012471583,0.049487392,Pothole
1492638980,40.44852375,-79.94425802,11.22000027,0.119003296,-0.936157227,0.171295166,-0.024811074,0.023568976,0.035936429,Pothole
1492638981,40.44852375,-79.94425802,11.22000027,0.153808594,-0.982223511,0.147674561,0.012104333,0.013758689,0.056597766,Pothole
1492638981,40.44852375,-79.94425802,11.22000027,0.117004395,-0.941772461,0.183746338,0.005238438,0.015924105,0.014939535,Pothole
1492638981,40.44852375,-79.94425802,11.22000027,0.04083252,-0.979568481,0.186950684,0.030131271,0.127445308,-0.030940606,Pothole
1492638981,40.44852375,-79.94425802,11.22000027,0.089324951,-0.952346802,0.161331177,-0.023913589,0.111849037,0.018658373,Pothole
1492638981,40.44862237,-79.94427272,10.90999985,0.122894287,-0.950958252,0.178207397,-0.040832118,0.100255765,0.003588077,Pothole
1492638982,40.44862237,-79.94427272,10.90999985,0.112731934,-0.979385376,0.152252197,-0.051592088,0.10031462,-0.065826152,Pothole
1492638982,40.44862237,-79.94427272,10.90999985,0.07371521,-1.002792358,0.193023682,0.008901616,0.228619863,-0.135908035,Pothole
1492638982,40.44862237,-79.94427272,10.90999985,0.128295898,-1.031799316,0.170562744,-0.034162232,0.133174832,-0.07639464,Pothole
1492638982,40.44862237,-79.94427272,10.90999985,0.08442688,-1.084793091,0.168884277,0.061817029,0.005980128,-0.000448743,Pothole
1492638982,40.44870556,-79.94429363,10.56000042,0.141662598,-0.957809448,0.170196533,0.025394306,0.100886401,-0.010662498,Pothole
1492638983,40.44870556,-79.94429363,10.56000042,0.169967651,-0.925308228,0.167541504,-0.071740766,0.136614305,-0.052265335,Pothole
1492638983,40.44870556,-79.94429363,10.56000042,0.138641357,-0.936737061,0.255996704,-0.009777796,0.067073576,-0.026928553,Pothole
1492638983,40.44870556,-79.94429363,10.56000042,0.125671387,-0.928634644,0.221237183,0.044854024,-0.04602475,0.043226567,Pothole
1492638983,40.44870556,-79.94429363,10.56000042,-0.008834839,-1.175033569,0.102600098,0.133115977,0.066141736,-0.041456363,Pothole
1492638983,40.4488069,-79.94433446,10.44999981,0.046218872,-0.842971802,0.348358154,-0.155976818,-0.043659597,0.012376509,Pothole
1492638984,40.4488069,-79.94433446,10.44999981,0.253555298,-1.084228516,0.305450439,-0.222279941,0.398182264,-0.192023236,Pothole
1492638984,40.4488069,-79.94433446,10.44999981,0.215072632,-0.900863647,0.243591309,-0.158050888,0.238213634,-0.148304251,Pothole
1492638984,40.4488069,-79.94433446,10.44999981,0.077346802,-0.933807373,0.27645874,-0.115491176,0.036914076,-0.022601982,Pothole
1492638984,40.4488069,-79.94433446,10.44999981,0.124389648,-0.972229004,0.242401123,-0.092082523,0.098450674,-0.065169682,Pothole
1492638984,40.44889733,-79.94437177,10.93999958,0.093261719,-0.821044922,0.237457275,-0.113729495,0.160284214,-0.083676521,Pothole
1492638985,40.44889733,-79.94437177,10.93999958,0.124908447,-0.873901367,0.343856812,0.009246495,-0.108552577,0.043023367,Pothole
1492638985,40.44889733,-79.94437177,10.93999958,0.003143311,-1.06161499,0.26373291,-0.010181531,-0.123304092,0.13135829,Pothole
1492638985,40.44889733,-79.94437177,10.93999958,0.011642456,-0.974578857,0.201889038,-0.107264938,0.015587748,-0.012866796,Pothole
1492638985,40.44889733,-79.94437177,10.93999958,-0.000976563,-0.913421631,0.201797485,0.022828883,-0.003332946,0.041824679,Pothole
1492638985,40.44899541,-79.94441225,11.40999985,-0.003616333,-0.920196533,0.344863892,-0.10967936,-0.00673327,-0.004304201,Pothole
1492638986,40.44899541,-79.94441225,11.40999985,0.125396729,-0.959197998,0.235519409,0.044977062,-0.008806008,-0.022973493,Pothole
1492638986,40.44899541,-79.94441225,11.40999985,0.034698486,-0.949493408,0.222824097,-0.062792811,0.063148077,-0.123420472,Pothole
1492638986,40.44899541,-79.94441225,11.40999985,0.0184021,-0.981399536,0.20135498,-0.014621287,-0.000972054,-0.02147147,Pothole
1492638986,40.44909478,-79.94445379,11.84000015,0.124084473,-0.863555908,0.202728271,0.032472722,-0.02254499,0.027045999,Pothole
1492638986,40.44909478,-79.94445379,11.84000015,0.079467773,-0.974441528,0.274246216,-0.002606436,0.136165562,-0.046225286,Pothole
1492638987,40.44909478,-79.94445379,11.84000015,0.067947388,-0.935577393,0.192230225,-0.01795663,0.042667569,0.012500612,Pothole
1492638987,40.44909478,-79.94445379,11.84000015,-0.042526245,-0.992843628,0.285858154,0.023400131,0.043464387,0.025716549,Pothole
1492638987,40.44909478,-79.94445379,11.84000015,-0.104904175,-0.893112183,0.312393188,0.019286346,-0.005445898,-0.01151684,Pothole
1492638987,40.44909478,-79.94445379,11.84000015,0.096923828,-0.98739624,0.204879761,0.025476332,0.005154282,0.008777246,Pothole
1492638987,40.44919864,-79.94449734,12.23999977,0.061859131,-0.934768677,0.289657593,-0.002636263,0.025542112,-0.026748257,Pothole
1492638988,40.44919864,-79.94449734,12.23999977,0.130783081,-0.951187134,0.186813354,0.012770923,-0.037303963,0.05780258,Pothole
1492638988,40.44919864,-79.94449734,12.23999977,0.037200928,-0.948059082,0.280090332,-0.060568539,0.018477278,0.000398409,Pothole
1492638988,40.44919864,-79.94449734,12.23999977,-0.005081177,-0.877090454,0.194976807,-0.037363617,0.070443274,-0.032550753,Pothole
1492638988,40.44919864,-79.94449734,12.23999977,-0.062316895,-1.024246216,0.165603638,0.007572432,-0.083015525,0.023748473,Pothole
1492638988,40.44930653,-79.94454257,12.46000004,-0.093917847,-0.871261597,0.24798584,-0.070212112,-0.087815606,0.101864314,Pothole
1492638989,40.44930653,-79.94454257,12.46000004,-0.134674072,-0.952926636,0.223480225,-0.071358869,-0.062288142,0.044211137,Pothole
1492638989,40.44930653,-79.94454257,12.46000004,-0.135345459,-0.990646362,0.220611572,-0.014590128,0.053269347,-0.071723189,Pothole
1492638989,40.44930653,-79.94454257,12.46000004,-0.133102417,-1.01411438,0.156616211,0.033986996,-0.092759232,0.033639986,Pothole
1492638989,40.44930653,-79.94454257,12.46000004,-0.154586792,-0.874160767,0.22038269,0.134722395,-0.111494304,0.054977765,Pothole
1492638989,40.44940868,-79.9445854,12.35999966,-0.043945313,-0.989807129,0.212814331,-0.027893417,-0.020028569,0.004030961,Pothole
1492638990,40.44940868,-79.9445854,12.35999966,-0.149749756,-0.976348877,0.220413208,-0.076717149,-0.117571105,0.016577379,Pothole
1492638990,40.44940868,-79.9445854,12.35999966,-0.165008545,-1.034179688,0.14906311,0.086447807,-0.099486644,0.009671536,Pothole
1492638990,40.44940868,-79.9445854,12.35999966,-0.065994263,-0.96774292,0.234024048,-0.024109331,-0.060484916,-0.060864949,Pothole
1492638990,40.44951158,-79.94462855,12.17000008,0.042312622,-0.971786499,0.194488525,-0.04255545,0.035369709,-0.061301175,Pothole
1492638990,40.44951158,-79.94462855,12.17000008,0.064743042,-0.892883301,0.21786499,-0.080698575,0.026053705,-0.003025884,Pothole
1492638991,40.44951158,-79.94462855,12.17000008,0.130233765,-0.919891357,0.260528564,0.013875336,-0.000103064,-0.079823726,Pothole
1492638991,40.44951158,-79.94462855,12.17000008,0.26940918,-1.065124512,0.268661499,0.084921017,0.144079412,-0.211678962,Pothole
1492638991,40.44951158,-79.94462855,12.17000008,0.312026978,-0.924026489,0.326324463,0.056130647,-0.051412059,0.072143702,Pothole
1492638991,40.44951158,-79.94462855,12.17000008,0.085159302,-1.029022217,0.290023804,-0.118987108,0.120969033,-0.032450618,Pothole
1492638991,40.44961826,-79.94467327,12.14000034,0.075881958,-1.038360596,0.225784302,0.062298528,-0.059972524,0.006123673,Pothole
1492638992,40.44961826,-79.94467327,12.14000034,-0.007537842,-0.947540283,0.357788086,0.102746885,0.031239945,-0.020352942,Pothole
1492638992,40.44961826,-79.94467327,12.14000034,0.221893311,-0.849807739,0.243743896,-0.139065212,0.129608327,-0.039075764,Pothole
1492638992,40.44961826,-79.94467327,12.14000034,0.020446777,-1.01965332,0.297927856,-0.015980298,-0.026491262,-0.013956029,Pothole
1492638992,40.44961826,-79.94467327,12.14000034,-0.014907837,-0.949081421,0.315643311,0.003572364,0.007419034,-0.02343928,Pothole
1492638992,40.44972729,-79.94471899,12.73999977,0.093551636,-0.957321167,0.246383667,-0.03637878,0.001290035,-0.06434863,Pothole
1492638993,40.44972729,-79.94471899,12.73999977,0.009109497,-1.051239014,0.204025269,-0.008994028,0.004306864,-0.040619332,Pothole
1492638993,40.44972729,-79.94471899,12.73999977,0.085586548,-0.985336304,0.169754028,-0.042715772,-0.014614096,0.000666589,Pothole
1492638993,40.44972729,-79.94471899,12.73999977,0.142471313,-0.993850708,0.188018799,-0.055691226,0.121615648,-0.065923091,Pothole
1492638993,40.44972729,-79.94471899,12.73999977,0.166503906,-0.828720093,0.252258301,-0.00318301,0.034050112,-0.059828447,Pothole
1492638993,40.44983636,-79.94476472,12.63000011,0.147750854,-0.934921265,0.198318481,-0.086335155,-0.005820339,0.002329733,Pothole
1492638994,40.44983636,-79.94476472,12.63000011,0.065841675,-0.946395874,0.153518677,0.003497796,0.016994696,-0.012802614,Pothole
1492638994,40.44983636,-79.94476472,12.63000011,0.140487671,-0.90713501,0.23928833,-0.073007898,0.094072437,-0.060698235,Pothole
1492638994,40.44983636,-79.94476472,12.63000011,0.087936401,-0.960083008,0.206237793,0.044733383,0.011410846,0.005759618,Pothole
1492638994,40.44983636,-79.94476472,12.63000011,0.065994263,-0.984161377,0.174621582,-0.101280815,0.052774532,-0.04062306,Pothole
1492638994,40.44993861,-79.94480759,12.21000004,0.095504761,-1.025924683,0.139419556,-0.046298257,0.036464268,-0.020826186,Pothole
1492638995,40.44993861,-79.94480759,12.21000004,0.030319214,-0.887145996,0.161010742,-0.051593153,-0.050721767,0.007066165,Pothole
1492638995,40.44993861,-79.94480759,12.21000004,0.118423462,-1.012435913,0.139022827,-0.055101069,0.037588655,0.000405067,Pothole
1492638995,40.44993861,-79.94480759,12.21000004,0.035049438,-0.966522217,0.230545044,-0.016140088,-0.036062663,-0.007535681,Pothole
1492638995,40.44993861,-79.94480759,12.21000004,0.12562561,-1.037567139,0.145553589,0.016845825,0.063708939,-0.028779717,Pothole
1492638995,40.45003523,-79.9448481,11.68999958,0.074432373,-1.045837402,0.112243652,0.087748228,-0.05056251,0.01915452,Pothole
1492638996,40.45003523,-79.9448481,11.68999958,0.035675049,-0.906280518,0.050460815,-0.049313754,-0.049662095,0.074258252,Pothole
1492638996,40.45003523,-79.9448481,11.68999958,0.110443115,-1.008712769,0.035064697,-0.018870094,-0.036037896,0.03615108,Pothole
1492638996,40.45003523,-79.9448481,11.68999958,0.035049438,-0.905075073,0.039169312,-0.031626902,-0.039146604,0.032829852,Pothole
1492638996,40.45003523,-79.9448481,11.68999958,0.084243774,-0.952011108,0.006469727,-0.093476155,0.052719671,-0.066132149,Pothole
1492638996,40.45013344,-79.94488928,10.38000011,0.223266602,-1.017944336,0.07824707,0.05974722,-0.181200682,0.125826372,Pothole
1492638997,40.45013344,-79.94488928,10.38000011,0.15802002,-1.039749146,0.053451538,-0.113551863,0.214522952,-0.144588875,Pothole
1492638997,40.45013344,-79.94488928,10.38000011,-0.065719604,-1.016113281,0.138061523,0.021994781,-0.158621869,0.095527588,Pothole
1492638997,40.45013344,-79.94488928,10.38000011,0.103286743,-0.98374939,0.073730469,-0.076883064,-0.01545459,0.006716226,Pothole
1492638997,40.45013344,-79.94488928,10.38000011,-0.019485474,-0.938827515,0.077178955,-0.008206797,-0.045681735,0.029887858,Pothole
1492638997,40.45021268,-79.9449225,8.789999962,0.122970581,-1.007598877,0.002441406,-0.03580407,0.060865481,0.003741209,Pothole
1492638998,40.45021268,-79.9449225,8.789999962,0.103927612,-0.904525757,0.042160034,-0.033698575,0.022554844,-0.01533022,Pothole
1492638998,40.45021268,-79.9449225,8.789999962,0.078384399,-0.994628906,0.021224976,-0.00756897,0.013880129,0.015879897,Pothole
1492638998,40.45021268,-79.9449225,8.789999962,0.020629883,-0.973052979,0.022537231,-0.029402364,0.046994141,-0.004687164,Pothole
1492638998,40.45027839,-79.94495005,7.090000153,0.063705444,-0.956878662,0.015289307,-0.003773433,-0.024436367,0.028812207,Pothole
1492638998,40.45027839,-79.94495005,7.090000153,0.046615601,-0.947982788,0.117355347,-0.080873012,-0.006921289,-0.008273643,Pothole
1492638999,40.45027839,-79.94495005,7.090000153,0.104263306,-0.997589111,0.004470825,-0.036312201,0.060862286,-0.036780119,Pothole
1492638999,40.45027839,-79.94495005,7.090000153,0.057052612,-0.986968994,0.037902832,-0.014561899,-0.039257924,0.030872429,Pothole
1492638999,40.45027839,-79.94495005,7.090000153,0.0806427,-1.003067017,-0.02355957,-0.011529623,-0.000990962,-0.013976269,Pothole
1492638999,40.45027839,-79.94495005,7.090000153,0.00378418,-1.007629395,-0.027450562,-0.017479125,-0.041369811,0.00952373,Pothole
1492638999,40.4503305,-79.9449719,5.269999981,0.065917969,-1.034133911,-0.041641235,-0.03516145,0.00661183,0.004954012,Pothole
1492639000,40.4503305,-79.9449719,5.269999981,0.009277344,-0.989883423,0.009857178,-0.039664056,-0.019951338,0.008175106,Pothole
1492639000,40.4503305,-79.9449719,5.269999981,0.032806396,-1.032974243,-0.029190063,-0.015176556,-0.010536264,0.01373259,Pothole
1492639000,40.4503305,-79.9449719,5.269999981,0.043655396,-1.000778198,0.011398315,-0.024407605,0.001221592,-0.005584116,Pothole
1492639000,40.4503305,-79.9449719,5.269999981,0.028335571,-1.014450073,0.054244995,0.00333268,-0.012789032,-0.016992299,Pothole
1492639000,40.45035882,-79.94498377,2.910000086,0.049835205,-0.999237061,0.084075928,-0.008484565,-0.005264271,-0.005404353,Pothole
1492639001,40.45035882,-79.94498377,2.910000086,0.071136475,-0.963516235,0.12727356,-0.02123871,-0.00411778,-0.006604107,Pothole
1492639001,40.45035882,-79.94498377,2.910000086,0.05619812,-0.98324585,0.15045166,-0.023277626,0.00014967,-0.010900851,Pothole
1492639001,40.45035882,-79.94498377,2.910000086,0.078857422,-0.982391357,0.136703491,-0.002398443,-0.020193685,0.008557269,Pothole
1492639001,40.45035882,-79.94498377,2.910000086,0.060897827,-0.984130859,0.122009277,-0.003247459,-0.014871624,-0.004259726,Pothole
1492639001,40.45037874,-79.94499212,1.360000014,0.070068359,-0.979476929,0.127349854,-0.016105467,-0.015850868,0.000942226,Pothole
1492639002,40.45037874,-79.94499212,1.360000014,0.070739746,-0.984893799,0.128189087,-0.009605223,-0.001001082,0.000970456,Pothole
1492639002,40.45037874,-79.94499212,1.360000014,0.060684204,-0.978744507,0.124893188,-0.019143867,-0.000939563,-0.002326005,Pothole
1492639002,40.45037874,-79.94499212,1.360000014,0.070144653,-0.978149414,0.132049561,-0.01067395,-0.007376956,-0.002222674,Pothole
1492639002,40.45037874,-79.94499212,1.360000014,0.072784424,-0.976211548,0.150604248,-0.018055167,0.002244512,-0.002323075,Pothole
1492639002,40.45038431,-79.94499446,0.419999987,0.083328247,-0.95249939,0.232299805,-0.005384912,-0.004219512,0.002088185,Pothole
1492639003,40.45038431,-79.94499446,0.419999987,0.073348999,-0.961074829,0.24772644,-0.012748818,-0.002045041,-0.003323891,Pothole
1492639003,40.45038431,-79.94499446,0.419999987,0.088043213,-0.950073242,0.251037598,-0.010688597,-0.00737669,-0.001156611,Pothole
1492639003,40.45038431,-79.94499446,0.419999987,0.084121704,-0.954147339,0.241470337,-0.019182483,-0.004130297,-0.001251952,Pothole
1492639003,40.45038431,-79.94499446,0.419999987,0.083633423,-0.950454712,0.247970581,-0.015928366,-0.002024535,-0.004422712,Pothole
1492639003,40.45038512,-79.9449948,0.159999996,0.069961548,-0.952514648,0.24256897,-0.016040219,-0.005213937,0.001981658,Pothole
1492639004,40.45038512,-79.9449948,0.159999996,0.079101563,-0.949172974,0.230316162,-0.018186993,-0.009455021,0.00090441,Pothole
1492639004,40.45038512,-79.9449948,0.159999996,0.087310791,-0.933410645,0.31678772,-0.007303986,0.004301005,-0.008615592,Pothole
1492639004,40.45038512,-79.9449948,0.159999996,0.081665039,-0.916763306,0.363189697,0.009670471,-6.39E-05,-0.00629811,Pothole
1492639004,40.45038512,-79.9449948,0.159999996,0.094924927,-0.920959473,0.352005005,-0.017022393,-0.002017078,-0.002301504,Pothole
1492639004,40.45038876,-79.94499632,0.449999988,0.093841553,-0.906082153,0.37336731,-0.026716832,-0.005144162,0.004004595,Pothole
1492639005,40.45038876,-79.94499632,0.449999988,0.079406738,-0.881225586,0.444091797,-0.009784986,0.004321245,0.016948091,Pothole
1492639005,40.45038876,-79.94499632,0.449999988,0.146759033,-0.821807861,0.430175781,0.01906344,-0.073513366,0.045165881,Pothole
1492639005,40.45038876,-79.94499632,0.449999988,0.185714722,-0.896911621,0.510513306,0.001438906,0.024453944,-0.013909158,Pothole
1492639005,40.45038876,-79.94499632,0.449999988,0.129135132,-0.833724976,0.533721924,-0.063919062,-0.048506816,0.052781456,Pothole
1492639005,40.45040204,-79.94500189,2.220000029,-0.070068359,-0.977249146,0.472625732,-0.027025759,-0.065775818,-0.006504238,Pothole
1492639006,40.45040204,-79.94500189,2.220000029,0.014465332,-0.833633423,0.503341675,0.046406647,-0.01094719,-0.050674896,Pothole
1492639006,40.45040204,-79.94500189,2.220000029,0.100158691,-0.890869141,0.452682495,-0.015357651,-0.042447326,0.009548231,Pothole
1492639006,40.45040204,-79.94500189,2.220000029,-0.029006958,-0.917129517,0.417129517,-0.031690019,-0.074238811,0.095826395,Pothole
1492639006,40.45040204,-79.94500189,2.220000029,0.092788696,-0.978775024,0.292327881,0.020565995,0.038147119,-0.08092015,Pothole
1492639006,40.45044096,-79.94501821,4.760000229,0.210586548,-0.838226318,0.394882202,0.129960131,-0.096564091,0.099671467,Pothole
1492639007,40.45044096,-79.94501821,4.760000229,0.244369507,-0.885040283,0.302322388,-0.008103733,0.053238454,-0.001286573,Pothole
1492639007,40.45044096,-79.94501821,4.760000229,0.094894409,-0.882476807,0.402816772,-0.061142983,-0.072987658,0.06993248,Pothole
1492639007,40.45044096,-79.94501821,4.760000229,0.111114502,-0.821121216,0.466140747,-0.084300766,-0.033479131,0.071725852,Pothole
1492639007,40.45043817,-79.94501704,6.690000057,0.052749634,-0.858383179,0.42477417,-0.105560249,0.003879693,0.011703794,Pothole
1492639007,40.45043817,-79.94501704,6.690000057,0.016952515,-0.917663574,0.354568481,-0.05735144,-0.094283093,0.09241675,Pothole
1492639008,40.45043817,-79.94501704,6.690000057,-0.084106445,-0.929718018,0.310775757,-0.019908993,0.033103891,-0.005620335,Pothole
1492639008,40.45043817,-79.94501704,6.690000057,-0.064315796,-1.186172485,0.166000366,-0.005524728,-0.063790431,-0.020150009,Pothole
1492639008,40.45043817,-79.94501704,6.690000057,-0.008712769,-1.044372559,0.191207886,0.088006555,-0.070779631,-0.010644655,Pothole
1492639008,40.45043817,-79.94501704,6.690000057,0.023208618,-0.987823486,0.236114502,-0.012236693,-0.042466767,0.014911305,Pothole
1492639008,40.45044258,-79.94501889,7.929999828,0.138504028,-1.023254395,0.170974731,0.058974903,0.069810773,-0.068880265,Pothole
1492639009,40.45044258,-79.94501889,7.929999828,0.113555908,-0.958953857,0.193374634,-0.032412801,0.001267665,-0.042983686,Pothole
1492639009,40.45044258,-79.94501889,7.929999828,0.104217529,-1.027511597,0.215988159,0.0202584,0.073258502,-0.039431562,Pothole
1492639009,40.45044258,-79.94501889,7.929999828,0.247711182,-0.884628296,0.37802124,-0.014573616,0.177722593,-0.082706332,Pothole
1492639009,40.45044258,-79.94501889,7.929999828,0.170761108,-0.95149231,0.358688354,-0.031206922,0.109766978,0.005794506,Pothole
1492639009,40.45062508,-79.94509744,7.800000191,0.076766968,-0.91178894,0.402633667,-0.02568539,0.011870508,0.015699601,Pothole
1492639010,40.45062508,-79.94509744,7.800000191,0.189346313,-0.896484375,0.383102417,-0.003822701,-0.021244036,0.034134535,Pothole
1492639010,40.45062508,-79.94509744,7.800000191,0.127716064,-0.91368103,0.396606445,0.025337048,0.067909276,-0.024438764,Pothole
1492639010,40.45062508,-79.94509744,7.800000191,0.175308228,-0.862976074,0.407440186,-0.046566703,0.091774928,-0.048693237,Pothole
1492639010,40.450697,-79.94512839,8.920000076,0.095336914,-0.924087524,0.487228394,-0.065165954,0.10678264,-0.081975028,Pothole
1492639010,40.450697,-79.94512839,8.920000076,0.241165161,-0.812576294,0.392959595,-0.075781314,0.157914267,-0.056626528,Pothole
1492639011,40.450697,-79.94512839,8.920000076,0.007888794,-1.011932373,0.445465088,0.120701119,-0.070976173,0.08991471,Pothole
1492639011,40.450697,-79.94512839,8.920000076,-0.154846191,-0.892684937,0.381790161,-0.075175711,-0.011205517,0.039775376,Pothole
1492639011,40.450697,-79.94512839,8.920000076,-0.08392334,-0.936767578,0.409683228,-0.047458063,-0.049683401,0.016701748,Pothole
1492639011,40.450697,-79.94512839,8.920000076,-0.068496704,-0.936599731,0.365356445,0.026342125,-0.10653683,0.039994554,Pothole
1492639011,40.45078483,-79.94516619,10.35000038,-0.123474121,-0.876251221,0.357223511,0.003476224,-0.182964227,0.112460233,Pothole
1492639012,40.45078483,-79.94516619,10.35000038,-0.072601318,-0.930114746,0.390365601,-0.099691174,-0.100405967,-0.007158843,Pothole
1492639012,40.45078483,-79.94516619,10.35000038,0.013275146,-0.879318237,0.333709717,-0.011709919,-0.129696478,0.006612096,Pothole
1492639012,40.45078483,-79.94516619,10.35000038,0.054840088,-0.998596191,0.363983154,-0.024025974,-0.060473997,0.010572217,Pothole
1492639012,40.45078483,-79.94516619,10.35000038,-0.006637573,-0.979721069,0.370513916,-0.019556125,0.035225099,-0.030145119,Pothole
1492639012,40.45088585,-79.94520968,11.89999962,-0.060562134,-0.863616943,0.42527771,-0.087592434,0.042049183,-0.035124165,Pothole
1492639013,40.45088585,-79.94520968,11.89999962,0.107147217,-1.046585083,0.322601318,-0.023858994,0.011849735,-0.039724776,Pothole
1492639013,40.45088585,-79.94520968,11.89999962,0.175033569,-0.889099121,0.245574951,-0.091982655,0.094193611,-0.0747536,Pothole
1492639013,40.45088585,-79.94520968,11.89999962,0.121337891,-0.917373657,0.265960693,0.016896692,-0.074562652,0.047278833,Pothole
1492639013,40.45088585,-79.94520968,11.89999962,0.077102661,-0.921615601,0.216629028,-0.06099864,-0.001727326,0.020704213,Pothole
1492639013,40.45099081,-79.94525485,12.63000011,0.06211853,-0.974090576,0.191772461,-0.046181078,0.024760208,-0.035721779,Pothole
1492639014,40.45099081,-79.94525485,12.63000011,0.038467407,-0.995422363,0.105545044,0.031653001,-0.052329251,-0.00700438,Pothole
1492639014,40.45099081,-79.94525485,12.63000011,0.042648315,-0.961395264,0.173797607,0.034050911,-0.07254797,0.039985766,Pothole
1492639014,40.45099081,-79.94525485,12.63000011,0.087722778,-1.005706787,0.176864624,-0.032943303,-0.043390351,0.048820536,Pothole
1492639014,40.45099081,-79.94525485,12.63000011,0.084564209,-0.913726807,0.110748291,0.017635719,-0.005428321,0.031114776,Pothole
1492639014,40.45109555,-79.94529993,12.13000011,0.053619385,-1.074356079,0.090286255,-0.095369663,-0.012138422,0.036372389,Pothole
1492639015,40.45109555,-79.94529993,12.13000011,-0.031738281,-1.014480591,0.063613892,-0.000284958,-0.010632937,0.014951519,Pothole
1492639015,40.45109555,-79.94529993,12.13000011,0.065643311,-0.976699829,0.055953979,-0.07864581,0.048368864,-0.062770441,Pothole
1492639015,40.45109555,-79.94529993,12.13000011,0.102905273,-1.16418457,0.023834229,-0.004693821,0.011725099,-0.039528235,Pothole
1492639015,40.45109555,-79.94529993,12.13000011,0.074905396,-0.909927368,-0.101013184,0.048363804,-0.033285519,0.027236415,Pothole
1492639015,40.45118812,-79.94533978,10.38000011,0.077606201,-1.044830322,-0.048614502,0.014691861,-0.038390266,-0.005081578,Pothole
1492639016,40.45118812,-79.94533978,10.38000011,0.101394653,-1.02633667,-0.136032104,-0.014271614,-0.020114589,0.020163858,Pothole
1492639016,40.45118812,-79.94533978,10.38000011,-0.013534546,-1.002944946,-0.044052124,-0.021770809,0.027793814,-0.028016188,Pothole
1492639016,40.45118812,-79.94533978,10.38000011,0.058425903,-1.043624878,-0.070571899,0.015058045,0.020112725,0.000102265,Pothole
1492639016,40.45118812,-79.94533978,10.38000011,-0.015274048,-1.002639771,-0.062942505,-0.048011468,-0.005005678,0.003786216,Pothole
1492639016,40.45125824,-79.94536996,7.800000191,0.022277832,-1.021682739,-0.120223999,-0.046203714,0.035398737,-0.028285967,Pothole
1492639017,40.45125824,-79.94536996,7.800000191,0.053024292,-1.054428101,-0.131973267,-0.015980298,0.008614527,0.005145227,Pothole
1492639017,40.45125824,-79.94536996,7.800000191,0.025039673,-1.044265747,-0.174316406,-0.018438662,-0.013705692,0.016906013,Pothole
1492639017,40.45125824,-79.94536996,7.800000191,0.035995483,-1.019515991,-0.144134521,-0.031936628,-0.014685736,-0.008818792,Pothole
1492639017,40.45125824,-79.94536996,7.800000191,0.0262146,-1.050979614,-0.138137817,0.009541307,0.00419368,0.005417935,Pothole
1492639017,40.45130596,-79.9453905,5.010000229,0.015396118,-1.011260986,-0.089080811,-0.027889422,-0.025347701,0.000846086,Pothole
1492639018,40.45130596,-79.9453905,5.010000229,0.044876099,-0.995834351,-0.073486328,0.00729067,-0.013875069,0.004375307,Pothole
1492639018,40.45130596,-79.9453905,5.010000229,0.104766846,-0.993896484,0.067306519,-0.040742903,0.043872117,-0.033582994,Pothole
1492639018,40.45130596,-79.9453905,5.010000229,0.069107056,-0.953445435,0.145187378,-0.01259835,0.004335094,-0.010802314,Pothole
1492639018,40.45130596,-79.9453905,5.010000229,0.074645996,-0.962753296,0.157836914,-0.003439206,-0.016995761,0.008538361,Pothole
1492639018,40.45132074,-79.94539686,1.159999967,0.068618774,-0.963150024,0.249954224,-0.008616391,-0.005261874,0.004190218,Pothole
1492639019,40.45132074,-79.94539686,1.159999967,0.061294556,-0.946502686,0.264022827,-0.011690745,-0.000988033,-0.002249572,Pothole
1492639019,40.45132074,-79.94539686,1.159999967,0.081512451,-0.923080444,0.404937744,0.023420105,-0.006535131,-0.002941994,Pothole
1492639019,40.45132074,-79.94539686,1.159999967,0.098526001,-0.903717041,0.454467773,-0.014894261,-0.004158526,-0.003340403,Pothole
1492639019,40.45132074,-79.94539686,1.159999967,0.053359985,-0.923919678,0.47303772,-0.011923771,-0.010558102,0.009501094,Pothole
1492639019,40.45132483,-79.94539862,0.550000012,0.026885986,-0.875473022,0.618545532,0.023739684,0.024309601,-0.009415606,Pothole
1492639020,40.45132483,-79.94539862,0.550000012,0.041900635,-0.843322754,0.596252441,0.053509032,-0.049274073,0.031595211,Pothole
1492639020,40.45132483,-79.94539862,0.550000012,0.073165894,-0.85748291,0.550048828,-0.036752156,-0.038051778,0.01891377,Pothole
1492639020,40.45132483,-79.94539862,0.550000012,0.135467529,-0.966323853,0.527755737,-0.077201312,-0.009065933,0.033351832,Pothole
1492639020,40.45132483,-79.94539862,0.550000012,0.094558716,-0.824401855,0.53704834,-0.022452046,-0.003056776,-0.072724538,Pothole
1492639020,40.45134417,-79.94540694,3.289999962,0.109329224,-0.765274048,0.490631104,-0.054096259,0.012051337,-0.009114669,Pothole
1492639021,40.45134417,-79.94540694,3.289999962,0.227142334,-0.816497803,0.537185669,0.045785065,-0.076867351,0.11368582,Pothole
1492639021,40.45134417,-79.94540694,3.289999962,0.082504272,-0.855758667,0.613006592,0.050910852,-0.060953632,0.059320315,Pothole
1492639021,40.45134417,-79.94540694,3.289999962,0.1224823,-0.916091919,0.524856567,-0.046332079,0.024775388,0.052772401,Pothole
1492639021,40.45138067,-79.94542265,5.239999771,0.112380981,-0.906051636,0.566253662,0.015656724,0.024369522,0.036348687,Pothole
1492639021,40.45138067,-79.94542265,5.239999771,0.079742432,-0.898803711,0.507247925,-0.04334774,0.04495842,0.001572597,Pothole
1492639022,40.45138067,-79.94542265,5.239999771,0.101119995,-0.914306641,0.557128906,-0.012189555,0.037305827,-0.022611569,Pothole
1492639022,40.45138067,-79.94542265,5.239999771,0.052352905,-0.726135254,0.524291992,-0.009040367,-0.125452464,0.047144609,Pothole
1492639022,40.45138067,-79.94542265,5.239999771,0.001144409,-0.736923218,0.457626343,-0.300315089,-0.008696819,-0.081952125,Pothole
1492639022,40.45138067,-79.94542265,5.239999771,0.085708618,-0.957855225,0.40435791,0.022139391,0.113661585,-0.076834062,Pothole
1492639022,40.4513741,-79.94541983,9.119999886,0.017730713,-0.926849365,0.562576294,-0.126946764,-0.084276532,-0.029870015,Pothole
1492639023,40.4513741,-79.94541983,9.119999886,-0.003570557,-0.889175415,0.482681274,0.006598781,-0.014938736,-0.023350596,Pothole
1492639023,40.4513741,-79.94541983,9.119999886,-0.02494812,-0.945632935,0.474639893,0.097885018,-0.180395075,0.063308133,Pothole
1492639023,40.4513741,-79.94541983,9.119999886,0.036453247,-0.914749146,0.396148682,-0.07216048,-0.090996486,0.086925578,Pothole
1492639023,40.4513741,-79.94541983,9.119999886,0.090560913,-0.920318604,0.387924194,-0.025988191,-0.090237485,0.059674782,Pothole
1492639023,40.45155985,-79.94550063,11.80000019,0.11164856,-0.977493286,0.384185791,0.037608628,-0.0768306,0.011245464,Pothole
1492639024,40.45155985,-79.94550063,11.80000019,0.058334351,-0.84147644,0.381378174,-0.03623204,-0.100813697,0.024412132,Pothole
1492639024,40.45155985,-79.94550063,11.80000019,0.085159302,-0.955734253,0.383468628,0.076158151,-0.082390481,0.070296268,Pothole
1492639024,40.45155985,-79.94550063,11.80000019,0.071487427,-0.953842163,0.392715454,-0.027750139,-0.052996906,0.053163353,Pothole
1492639024,40.45167113,-79.94554907,13.78999996,0.118667603,-0.974960327,0.345230103,-0.060659086,0.014223677,0.004673315,Pothole
1492639024,40.45167113,-79.94554907,13.78999996,0.096954346,-0.866729736,0.283294678,-0.100793989,0.018736137,-0.017073526,Pothole
1492639025,40.45167113,-79.94554907,13.78999996,0.061401367,-0.967422485,0.270568848,-0.009171128,0.03728825,-0.009786052,Pothole
1492639025,40.45167113,-79.94554907,13.78999996,0.031570435,-0.953338623,0.216064453,-0.062445535,-0.003841077,0.047350205,Pothole
1492639025,40.45167113,-79.94554907,13.78999996,-0.02130127,-0.876480103,0.234436035,-0.019566511,-0.072194835,0.067157466,Pothole
1492639025,40.45167113,-79.94554907,13.78999996,0.069488525,-0.969696045,0.202468872,-0.036023248,0.054474161,-0.061283598,Pothole
1492639025,40.45179362,-79.94560238,14.43999958,-0.037963867,-0.962524414,0.196716309,-0.012769325,-0.086073366,0.029945382,Pothole
1492639026,40.45179362,-79.94560238,14.43999958,0.019165039,-0.953613281,0.193084717,-0.034091391,-0.019990486,-0.009893377,Pothole
1492639026,40.45179362,-79.94560238,14.43999958,0.121368408,-0.936965942,0.179962158,0.031862059,-0.010844392,0.0003542,Pothole
1492639026,40.45179362,-79.94560238,14.43999958,0.023391724,-0.935424805,0.124435425,0.009603892,-0.036232307,-0.02113245,Pothole
1492639026,40.45179362,-79.94560238,14.43999958,0.091995239,-0.973251343,0.118988037,-0.045138184,-0.037998781,0.009231848,Pothole
1492639026,40.45191394,-79.94565474,14.14000034,0.038757324,-1.014923096,0.068267822,-0.017239441,-0.009459815,0.009443836,Pothole
1492639027,40.45191394,-79.94565474,14.14000034,0.002853394,-0.966918945,0.100692749,-0.035676771,-0.032739837,0.0210435,Pothole
1492639027,40.45191394,-79.94565474,14.14000034,0.092819214,-0.970611572,0.071929932,-0.017258882,0.034144388,-0.042913379,Pothole
1492639027,40.45191394,-79.94565474,14.14000034,0.139450073,-0.973388672,0.056213379,-0.049491653,-0.025203624,0.023015038,Pothole
1492639027,40.45191394,-79.94565474,14.14000034,0.06628418,-1.033935547,0.025878906,0.032860212,-0.011913917,0.004632036,Pothole
1492639027,40.45202889,-79.94570477,13,0.122146606,-1.012115479,0.022796631,0.035493013,0.055083226,0.004486095,Pothole
1492639028,40.45202889,-79.94570477,13,0.088241577,-1.030563354,0.011138916,0.003588343,0.044652157,-0.004343349,Pothole
1492639028,40.45202889,-79.94570477,13,0.036621094,-0.935455322,0.072418213,-0.071355673,0.01748525,0.009886453,Pothole
1492639028,40.45202889,-79.94570477,13,0.010879517,-0.964797974,0.095596313,-0.008973255,-0.01376588,0.025532791,Pothole
1492639028,40.45202889,-79.94570477,13,-0.040283203,-1.002655029,0.05305481,-0.018860241,0.007565774,-0.018338261,Pothole
1492639028,40.45213208,-79.94574968,11.31999969,-0.099014282,-0.978530884,0.121871948,-0.065817097,0.10785829,-0.034004839,Pothole
1492639029,40.45213208,-79.94574968,11.31999969,0.074890137,-0.949157715,0.051422119,0.005637912,0.045703573,0.002072206,Pothole
1492639029,40.45213208,-79.94574968,11.31999969,0.052658081,-1.02015686,0.070724487,-0.023021696,-0.103019859,0.069334067,Pothole
1492639029,40.45213208,-79.94574968,11.31999969,-0.040969849,-0.979385376,0.147247314,-0.011314973,-0.123308353,0.058844142,Pothole
1492639029,40.45213208,-79.94574968,11.31999969,-0.142349243,-0.973937988,0.224868774,-0.044302217,-0.201803695,0.091761612,Pothole
1492639029,40.45222378,-79.94578959,10.11999989,-0.062805176,-1.01776123,0.085510254,-0.030255907,-0.07639251,-0.009708554,Pothole
1492639030,40.45222378,-79.94578959,10.11999989,0.018081665,-0.970336914,0.032058716,-0.040269925,-0.063556606,0.0285395,Pothole
1492639030,40.45222378,-79.94578959,10.11999989,-0.017379761,-1.03036499,0.069595337,-0.030636739,-0.088087515,0.011642009,Pothole
1492639030,40.45222378,-79.94578959,10.11999989,-0.020217896,-1.013977051,0.055953979,0.057899785,-0.072708026,0.009310145,Pothole
1492639030,40.45222378,-79.94578959,10.11999989,0.131958008,-0.770645142,0.046356201,0.201326989,0.141190681,-0.237135054,Pothole
1492639030,40.45230278,-79.94582397,8.890000343,0.132293701,-1.031509399,-0.026580811,0.097801662,-0.110194415,0.03007348,Pothole
1492639031,40.45230278,-79.94582397,8.890000343,-0.209899902,-0.983001709,-0.121948242,0.011723235,-0.257469088,0.169246284,Pothole
1492639031,40.45230278,-79.94582397,8.890000343,-0.07661438,-1.050369263,0.085266113,0.008784703,-0.002200304,-0.097996072,Pothole
1492639031,40.45230278,-79.94582397,8.890000343,0.073760986,-0.960922241,0.156646729,-0.004145743,-0.041463021,-0.030855651,Pothole
1492639031,40.45230278,-79.94582397,8.890000343,0.083602905,-0.979095459,0.177017212,-0.009418802,-0.019089272,-0.022437665,Pothole
1492639031,40.45236893,-79.94585276,6.960000038,0.149032593,-0.956329346,0.193710327,-0.020844562,0.00544936,-0.03008147,Pothole
1492639032,40.45236893,-79.94585276,6.960000038,0.169219971,-0.951400757,0.262176514,-0.002100169,0.023417175,0.010580206,Pothole
1492639032,40.45236893,-79.94585276,6.960000038,0.146881104,-0.982009888,0.222824097,-0.007459248,0.111736386,-0.016357934,Pothole
1492639032,40.45236893,-79.94585276,6.960000038,0.11138916,-0.960708618,0.278961182,0.017694309,-0.005429387,0.026850523,Pothole
1492639032,40.45236893,-79.94585276,6.960000038,0.206924438,-0.894073486,0.356399536,-0.051986236,0.09074748,-0.042348789,Pothole
1492639032,40.45242482,-79.94587709,6.650000095,0.124694824,-0.904815674,0.343780518,0.011642808,0.041413753,0.027733893,Pothole
1492639033,40.45242482,-79.94587709,6.650000095,0.120437622,-0.909912109,0.330474854,-0.095944373,0.0336035,0.02558632,Pothole
1492639033,40.45242482,-79.94587709,6.650000095,0.129333496,-0.89956665,0.365753174,-0.010133328,0.072399099,0.001841842,Pothole
1492639033,40.45242482,-79.94587709,6.650000095,0.071502686,-0.901443481,0.225250244,-0.024961543,0.0405927,0.056149023,Pothole
1492639033,40.45242482,-79.94587709,6.650000095,-0.058059692,-0.952606201,0.233108521,-0.033739588,-0.098694087,0.076676669,Pothole
1492639033,40.45248657,-79.94590396,8.109999657,-0.03578186,-1.009857178,0.058364868,-0.085762576,-0.003703125,-0.038186002,Pothole
1492639034,40.45248657,-79.94590396,8.109999657,-0.121185303,-1.025482178,0.07510376,-0.027068369,-0.06364742,-0.002245311,Pothole
1492639034,40.45248657,-79.94590396,8.109999657,-0.043411255,-1.00151062,0.03302002,-0.02912433,-0.189139831,0.079089759,Pothole
1492639034,40.45248657,-79.94590396,8.109999657,0.023620605,-1.000106812,0.102905273,-0.017507887,-0.012658804,-0.050258643,Pothole
1492639034,40.45248657,-79.94590396,8.109999657,-0.027160645,-0.979553223,0.0337677,-0.024493359,-0.105145595,0.02027864,Pothole
1492639034,40.45248103,-79.94590155,7.210000038,0.043365479,-1.006744385,0.050949097,-0.017973941,-0.008395083,-0.014023141,Pothole
1492639035,40.45248103,-79.94590155,7.210000038,0.067153931,-1.004974365,0.033035278,-0.049429868,0.031164844,-0.028308071,Pothole
1492639035,40.45248103,-79.94590155,7.210000038,0.025115967,-0.979904175,0.106750488,0.003283411,-0.009596701,-0.011669972,Pothole
1492639035,40.45248103,-79.94590155,7.210000038,0.091720581,-0.984237671,0.103530884,-0.030509706,0.002321744,-0.025907497,Pothole
1492639035,40.45248103,-79.94590155,7.210000038,0.078308105,-0.981735229,0.16746521,-0.007714112,-0.030797327,0.002132926,Pothole
1492639035,40.45248103,-79.94590155,5.860000134,0.094909668,-0.952163696,0.186569214,-0.030012228,-0.026397785,-0.000239152,Pothole
1492639036,40.45248103,-79.94590155,5.860000134,0.103607178,-0.948501587,0.204589844,-0.003031743,0.013847372,-0.004331632,Pothole
1492639036,40.45248103,-79.94590155,5.860000134,0.016952515,-0.995666504,0.217544556,-0.049945189,0.015217036,0.000515588,Pothole
1492639036,40.45248103,-79.94590155,5.860000134,0.103790283,-0.93182373,0.199249268,-0.001339037,-0.028711007,0.00432524,Pothole
1492639036,40.45248103,-79.94590155,5.860000134,0.088760376,-0.936737061,0.211380005,0.002184058,-0.006397712,-0.007424627,Pothole
1492639036,40.45265087,-79.94597971,5.590000153,0.112533569,-0.942733765,0.313674927,-0.010104033,0.037292777,-0.019391541,Pothole
1492639037,40.45265087,-79.94597971,5.590000153,0.025772095,-0.945800781,0.281234741,-0.047510794,0.046048186,-0.004870123,Pothole
1492639037,40.45265087,-79.94597971,5.590000153,0.02204895,-0.950637817,0.310211182,0.029375732,-0.031036479,0.01530785,Pothole
1492639037,40.45265087,-79.94597971,5.590000153,0.009140015,-0.919509888,0.356445313,-0.010633203,-0.063747288,0.041637991,Pothole
1492639037,40.45270663,-79.94600542,6.449999809,0.03414917,-0.906967163,0.402175903,-0.006110623,-0.028673989,0.041593783,Pothole
1492639037,40.45270663,-79.94600542,6.449999809,0.093048096,-0.957977295,0.264007568,-0.046613841,0.000300405,-0.017537448,Pothole
1492639038,40.45270663,-79.94600542,6.449999809,0.037261963,-1.018600464,0.175720215,-0.029688654,0.022531674,0.002836533,Pothole
1492639038,40.45270663,-79.94600542,6.449999809,0.038604736,-0.916046143,0.224319458,-0.029844981,-0.044473192,0.055252337,Pothole
1492639038,40.45270663,-79.94600542,6.449999809,0.081329346,-0.980224609,0.282958984,-0.005860286,-0.049954777,0.011797271,Pothole
1492639038,40.45270663,-79.94600542,6.449999809,0.0990448,-0.994735718,0.415817261,0.0532294,-0.074800472,0.038055507,Pothole
1492639038,40.45276522,-79.94603244,7.309999943,0.081802368,-0.95539856,0.381973267,0.052672533,0.039012647,-0.014488395,Pothole
1492639039,40.45276522,-79.94603244,7.309999943,0.139846802,-0.931289673,0.364807129,0.021507689,0.059431103,0.017126256,Pothole
1492639039,40.45276522,-79.94603244,7.309999943,0.207962036,-0.891494751,0.455108643,0.007129549,-0.00217021,0.02246909,Pothole
1492639039,40.45276522,-79.94603244,7.309999943,0.090881348,-0.934539795,0.414535522,-0.025605495,0.034209103,0.022040055,Pothole
1492639039,40.45276522,-79.94603244,7.309999943,0.071166992,-0.88835144,0.41809082,-0.038468829,0.013017531,0.016631974,Pothole
1492639039,40.45283678,-79.94606544,9.409999847,0.038742065,-0.906143188,0.364364624,-0.01149154,-0.038212633,0.040497093,Pothole
1492639040,40.45283678,-79.94606544,9.409999847,-0.029052734,-0.898300171,0.332626343,-0.072275263,0.027063842,0.004521249,Pothole
1492639040,40.45283678,-79.94606544,9.409999847,-0.011291504,-1.054580688,0.364501953,0.128977158,-0.101890146,0.013311811,Pothole
1492639040,40.45283678,-79.94606544,9.409999847,-0.116043091,-0.917755127,0.374206543,-0.037191577,-0.073149578,0.031794415,Pothole
1492639040,40.45283678,-79.94606544,9.409999847,-0.102081299,-0.964691162,0.331726074,0.07474854,-0.141950747,0.062972042,Pothole
1492639040,40.45292711,-79.94610709,11.02999973,0.005981445,-0.956710815,0.241592407,-0.001424791,-0.099972404,0.049289253,Pothole
1492639041,40.45292711,-79.94610709,11.02999973,-0.03175354,-0.929428101,0.242233276,-0.002899117,-0.071247549,0.017213608,Pothole
1492639041,40.45292711,-79.94610709,11.02999973,0.052230835,-0.984298706,0.227828979,-0.064483119,-0.079359537,-0.000455401,Pothole
1492639041,40.45292711,-79.94610709,11.02999973,0.085479736,-0.95892334,0.171936035,-0.035610459,0.082125763,-0.076277727,Pothole
1492639041,40.45292711,-79.94610709,11.02999973,-0.014663696,-0.974563599,0.187530518,0.02383689,-0.019308451,-0.040222255,Pothole
1492639041,40.45302466,-79.94615208,11.72999954,-0.018356323,-1.027511597,0.208190918,0.036346024,0.009336244,-0.004983041,Pothole
1492639042,40.45302466,-79.94615208,11.72999954,0.088745117,-0.984130859,0.171600342,0.016450346,0.040312269,-0.012730176,Pothole
1492639042,40.45302466,-79.94615208,11.72999954,0.016418457,-0.942779541,0.162078857,-0.066079418,0.051481034,-0.045590388,Pothole
1492639042,40.45302466,-79.94615208,11.72999954,0.017181396,-0.960235596,0.159912109,-0.019791015,-0.063692693,0.010623882,Pothole
1492639042,40.45302466,-79.94615208,11.72999954,0.113113403,-0.938095093,0.096176147,-0.033995518,-0.007226488,-0.009925335,Pothole
1492639042,40.45312433,-79.94619804,11.56999969,0.015426636,-0.971176147,0.025436401,-0.00378808,-0.036138031,0.023511185,Pothole
1492639043,40.45312433,-79.94619804,11.56999969,0.058670044,-0.946899414,0.063247681,-0.023691747,-0.017927602,0.009399627,Pothole
1492639043,40.45312433,-79.94619804,11.56999969,0.009658813,-0.99949646,0.02545166,-0.04354082,0.029004754,0.006942861,Pothole
1492639043,40.45312433,-79.94619804,11.56999969,0.080093384,-1.023025513,0.049331665,-0.027757595,-0.025350098,-0.008748484,Pothole
1492639043,40.45321795,-79.94624121,10.69999981,0.012069702,-0.983428955,0.101119995,-0.022710905,-0.034953989,0.006254966,Pothole
1492639043,40.45321795,-79.94624121,10.69999981,0.01663208,-0.999816895,0.043045044,-0.060238307,0.031237015,-0.016690563,Pothole
1492639044,40.45321795,-79.94624121,10.69999981,0.072631836,-0.969863892,0.027542114,-0.017501229,0.044786913,-0.019486616,Pothole
1492639044,40.45321795,-79.94624121,10.69999981,0.047637939,-1.016586304,0.030899048,0.003364638,0.014869494,-0.004268781,Pothole
1492639044,40.45321795,-79.94624121,10.69999981,0.07598877,-0.975479126,0.034805298,0.023433421,-0.032066856,-0.017802966,Pothole
1492639044,40.45330422,-79.94628099,9.520000458,0.047607422,-0.962127686,0.001190186,-0.019022693,0.005441104,-0.007672301,Pothole
1492639044,40.45330422,-79.94628099,9.520000458,0.003692627,-0.964294434,0.090393066,0.018700451,-0.017137175,0.02475861,Pothole
1492639045,40.45330422,-79.94628099,9.520000458,0.034255981,-1.041442871,0.007232666,-0.067160662,-0.002753709,0.003584349,Pothole
1492639045,40.45330422,-79.94628099,9.520000458,-0.015960693,-1.015563965,0.048187256,-0.017190172,-0.024354076,-0.002245577,Pothole
1492639045,40.45330422,-79.94628099,9.520000458,0.044586182,-1.008148193,0.029541016,-0.040497892,0.037484791,-0.054888283,Pothole
1492639045,40.45330422,-79.94628099,9.520000458,0.037750244,-0.996200562,-0.018005371,-0.036661076,0.041720016,-0.021807295,Pothole
1492639045,40.45337761,-79.94631483,8.050000191,-0.006271362,-1.012588501,-0.027557373,-0.021237378,-0.01369211,-0.011910455,Pothole
1492639046,40.45337761,-79.94631483,8.050000191,0.001541138,-1.007415771,-0.045944214,0.018878883,-0.024587102,0.007720238,Pothole
1492639046,40.45337761,-79.94631483,8.050000191,0.03112793,-1.01423645,-0.015731812,-0.021427794,-0.025390578,-0.004418717,Pothole
1492639046,40.45337761,-79.94631483,8.050000191,0.051254272,-0.996002197,-0.031356812,-0.007390538,-0.005271727,-0.007525561,Pothole
1492639046,40.45337761,-79.94631483,8.050000191,0.053649902,-1.0184021,-0.032333374,-0.007608918,-0.014842063,0.003159042,Pothole
1492639046,40.45343625,-79.94634187,6.150000095,0.058349609,-1.025299072,-0.059020996,-0.041977278,-0.03269989,0.014581606,Pothole
1492639047,40.45343625,-79.94634187,6.150000095,0.063476563,-0.988418579,-0.033828735,-0.027986627,-0.040239299,-0.000182693,Pothole
1492639047,40.45343625,-79.94634187,6.150000095,0.030807495,-1.025085449,-0.033096313,-0.00566188,-0.002086853,0.023404126,Pothole
1492639047,40.45343625,-79.94634187,6.150000095,0.014053345,-1.015335083,-0.009185791,-0.036792902,0.018318554,-0.024946895,Pothole
1492639047,40.45343625,-79.94634187,6.150000095,-0.000396729,-1.017654419,-0.012802124,-0.013407418,0.014975487,-0.023632625,Pothole
1492639047,40.45347325,-79.94635894,3.769999981,0.06149292,-1.002380371,-0.021469116,-0.026181537,0.031015707,-0.015275093,Pothole
1492639048,40.45347325,-79.94635894,3.769999981,0.058120728,-0.993911743,-0.010787964,-0.025312547,0.022501847,-0.005648298,Pothole
1492639048,40.45347325,-79.94635894,3.769999981,0.052825928,-1.013137817,-0.011138916,-0.022347384,0.019293803,0.009317335,Pothole
1492639048,40.45347325,-79.94635894,3.769999981,0.015213013,-1.005508423,0.001663208,-0.024693895,-0.011538944,0.008306666,Pothole
1492639048,40.45347325,-79.94635894,3.769999981,0.006790161,-1.009841919,-0.006515503,-0.01767034,0.032024246,-0.014124341,Pothole
1492639048,40.45349541,-79.94636915,1.909999967,0.021942139,-0.996414185,0.017623901,-0.019328957,-0.004127633,0.009408682,Pothole
1492639049,40.45349541,-79.94636915,1.909999967,0.042282104,-1.000717163,0.085754395,-0.004513259,-0.020180103,0.007469368,Pothole
1492639049,40.45349541,-79.94636915,1.909999967,0.037811279,-0.984573364,0.112991333,-0.012723518,0.003273558,-0.002271144,Pothole
1492639049,40.45349541,-79.94636915,1.909999967,0.045120239,-0.981018066,0.114151001,-0.02113751,0.005454687,-0.008760202,Pothole
1492639049,40.45350407,-79.94637315,0.610000014,0.045822144,-0.98677063,0.07434082,-0.021286647,0.001202151,-0.000221042,Pothole
1492639049,40.45350407,-79.94637315,0.610000014,0.029647827,-0.996673584,0.107299805,-0.000123837,-0.010635866,0.003224822,Pothole
1492639050,40.45350407,-79.94637315,0.610000014,0.034698486,-0.994949341,0.102844238,-0.01172936,-0.004178766,-0.001175519,Pothole
1492639050,40.45350407,-79.94637315,0.610000014,0.026275635,-0.977340698,0.108306885,-0.01715422,-0.013716611,0.000925981,Pothole
1492639050,40.45350407,-79.94637315,0.610000014,0.040863037,-0.964080811,0.213119507,-0.011706724,-0.003115366,-0.002244246,Pothole
1492639050,40.45350407,-79.94637315,0.610000014,0.041595459,-0.955032349,0.212463379,-0.007517038,-0.008460863,-5.51E-05,Pothole
1492639050,40.45350406,-79.94637314,0,0.047363281,-0.969848633,0.212280273,-0.021220068,0.002264752,-0.004487959,Pothole
1492639051,40.45350406,-79.94637314,0,0.04006958,-0.970291138,0.18421936,-0.017151556,-0.009461412,0.003047455,Pothole
1492639051,40.45350406,-79.94637314,0,0.036132813,-0.975006104,0.129013062,-0.016018914,-0.006278136,-0.000147805,Pothole
1492639051,40.45350406,-79.94637314,0,0.042922974,-0.981185913,0.128585815,-0.019138541,-0.004131095,-0.004450142,Pothole
1492639051,40.45350406,-79.94637314,0,0.042633057,-0.975143433,0.128479004,-0.021234715,0.002265019,-0.003421896,Pothole
1492639051,40.45350796,-79.94637494,0.150000006,0.045974731,-0.975189209,0.128890991,-0.021174794,0.004391553,-0.006625412,Pothole
1492639052,40.45350796,-79.94637494,0.150000006,0.054702759,-0.954040527,0.190322876,-0.015978967,-0.000959803,-0.000161121,Pothole
1492639052,40.45350796,-79.94637494,0.150000006,0.048355103,-0.978790283,0.167861938,-0.012838034,-0.004171043,0.002011752,Pothole
1492639052,40.45350796,-79.94637494,0.150000006,0.044616699,-0.970870972,0.159820557,-0.01496883,-0.006284794,0.000929177,Pothole
1492639052,40.45350796,-79.94637494,0.150000006,0.046447754,-0.9584198,0.177078247,-0.013896108,-0.005228052,0.000937433,Pothole
1492639052,40.45350832,-79.94637511,0,0.043624878,-0.97315979,0.161834717,-0.015996277,-0.005214736,-0.001216532,Pothole
1492639053,40.45350832,-79.94637511,0,0.048309326,-0.967514038,0.169616699,-0.014992798,-0.009475793,0.000937166,Pothole
1492639053,40.45350832,-79.94637511,0,0.041931152,-0.965332031,0.170913696,-0.01704503,-0.003080478,-0.001232777,Pothole
1492639053,40.45350832,-79.94637511,0,0.04296875,-0.973358154,0.163711548,-0.012877982,-0.009489376,0.002025068,Pothole
1492639053,40.45350832,-79.94637511,0,0.045394897,-0.967178345,0.168457031,-0.014930214,-0.003094061,-0.000144876,Pothole
1492639053,40.45350837,-79.94637513,0,0.046615601,-0.969985962,0.168151855,-0.01388945,-0.006291984,-0.000125968,Pothole
1492639054,40.45350837,-79.94637513,0,0.045776367,-0.969970703,0.166748047,-0.015996277,-0.005214736,-0.001216532,Pothole
1492639054,40.45350837,-79.94637513,0,0.045059204,-0.97164917,0.166763306,-0.014894261,-0.004158526,-0.003340403,Pothole
1492639054,40.45350837,-79.94637513,0,0.050018311,-0.973266602,0.171524048,-0.012847355,-0.007362309,0.000953678,Pothole
1492639054,40.45350837,-79.94637513,0,0.041900635,-0.967071533,0.173171997,-0.017090304,-0.005207279,0.000904676,Pothole
1492639054,40.45350841,-79.94637515,0,0.04876709,-0.971054077,0.165481567,-0.015957661,-0.002024002,-0.002290585,Pothole
1492639055,40.45350841,-79.94637515,0,0.038650513,-0.969940186,0.169967651,-0.019145199,-0.003067163,-0.003386742,Pothole
1492639055,40.45350841,-79.94637515,0,0.054046631,-0.967224121,0.182235718,-0.01172936,-0.004178766,-0.001175519,Pothole
1492639055,40.45350841,-79.94637515,0,0.040313721,-0.961074829,0.245941162,-0.005407549,-0.005282913,0.003156911,Pothole
1492639055,40.45350841,-79.94637515,0,0.053268433,-0.95463562,0.255233765,-0.013928066,-0.009482718,0.000948085,Pothole
1492639055,40.45350846,-79.94637517,0,0.07321167,-0.925415039,0.318405151,-0.001959021,0.003202185,-0.010690461,Pothole
1492639056,40.45350846,-79.94637517,0,0.091918945,-0.926483154,0.344116211,-0.01031176,0.021339377,-0.012955213,Pothole
1492639056,40.45350846,-79.94637517,0,0.091949463,-0.922286987,0.361160278,-0.012358665,0.04794702,-0.004515123,Pothole
1492639056,40.45350846,-79.94637517,0,0.075515747,-0.947128296,0.367858887,-0.015331818,0.061793327,-0.013111008,Pothole
1492639056,40.4535213,-79.94638109,1.389999986,0.113113403,-0.904846191,0.339752197,-0.009985523,0.074524036,-0.007758055,Pothole
1492639056,40.4535213,-79.94638109,1.389999986,0.096954346,-0.943588257,0.346710205,-0.022149777,0.117148462,-0.029316876,Pothole
1492639057,40.4535213,-79.94638109,1.389999986,0.122909546,-0.908203125,0.334533691,-0.034543064,0.144883686,-0.042309907,Pothole
1492639057,40.4535213,-79.94638109,1.389999986,0.210723877,-0.967849731,0.328063965,-0.00504163,0.202128867,-0.0656123,Pothole
1492639057,40.4535213,-79.94638109,1.389999986,0.061126709,-1.143280029,0.270095825,-0.015936622,0.239436025,-0.027436418,Pothole
1492639057,40.4535213,-79.94638109,1.389999986,0.163208008,-0.964752197,0.262054443,0.064956896,0.29527985,-0.071533306,Pothole
1492639057,40.45354141,-79.94639037,3.089999914,0.385101318,-0.979949951,0.283050537,0.074203125,0.300530272,-0.121564249,Pothole
1492639058,40.45354141,-79.94639037,3.089999914,0.295089722,-0.846542358,0.381912231,0.066320701,0.265493192,-0.031992554,Pothole
1492639058,40.45354141,-79.94639037,3.089999914,0.259536743,-1.129089355,0.230895996,0.070186812,0.398449113,0.068994248,Pothole
1492639058,40.45354141,-79.94639037,3.089999914,-0.05506897,-1.026077271,0.263641357,-0.062339541,0.335463222,-0.085734879,Pothole
1492639058,40.45356882,-79.94640301,4.309999943,0.183761597,-0.932144165,0.285507202,-0.001126517,0.305272297,-0.139407162,Pothole
1492639058,40.45356882,-79.94640301,4.309999943,0.171310425,-1.133529663,0.297805786,0.125155788,0.334242696,-0.091275585,Pothole
1492639059,40.45356882,-79.94640301,4.309999943,0.021881104,-0.825286865,0.40512085,-0.225092506,0.406719027,-0.137697146,Pothole
1492639059,40.45356882,-79.94640301,4.309999943,0.143417358,-0.904327393,0.413696289,-0.073838804,0.380190747,-0.232039362,Pothole
1492639059,40.45356882,-79.94640301,4.309999943,0.451873779,-0.901184082,0.150436401,-0.136349054,0.499740581,-0.190339319,Pothole
1492639059,40.45356882,-79.94640301,4.309999943,0.351043701,-0.833831787,0.252914429,-0.06902594,0.563128608,-0.1727542,Pothole
1492639059,40.45355243,-79.94646375,5.409999847,0.449066162,-0.903167725,0.247634888,-0.122703283,0.479441701,-0.186948582,Pothole
1492639060,40.45355243,-79.94646375,5.409999847,0.25,-0.990753174,0.387908936,-0.03167191,0.323576736,0.000973119,Pothole
1492639060,40.45355243,-79.94646375,5.409999847,0.313644409,-0.882095337,0.204940796,-0.013128852,0.438330216,-0.046046588,Pothole
1492639060,40.45355243,-79.94646375,5.409999847,0.286270142,-0.925811768,0.251495361,-0.10639515,0.388932573,-0.105515774,Pothole
1492639060,40.4535287,-79.94653482,6.380000114,0.221069336,-0.902450562,0.234024048,-0.047248739,0.309843879,-0.035402199,Pothole
1492639060,40.4535287,-79.94653482,6.380000114,0.243377686,-0.96131897,0.155700684,-0.058908324,0.304587598,-0.119738918,Pothole
1492639061,40.4535287,-79.94653482,6.380000114,0.15965271,-0.854400635,0.264343262,-0.10368565,0.386792989,-0.071363662,Pothole
1492639061,40.4535287,-79.94653482,6.380000114,-0.032821655,-1.01940918,0.307571411,-0.005752162,0.264894247,-0.057251838,Pothole
1492639061,40.4535287,-79.94653482,6.380000114,-0.083053589,-0.988983154,0.207077026,0.040184171,0.062506788,0.054627027,Pothole
1492639061,40.4535287,-79.94653482,6.380000114,-0.136871338,-0.763122559,0.305160522,-0.045750178,0.006680007,0.000580569,Pothole
1492639061,40.4535041,-79.94660853,7.099999905,-0.099090576,-1.166732788,0.098358154,0.033122001,0.155050038,-0.233561891,Pothole
1492639062,40.4535041,-79.94660853,7.099999905,-0.108901978,-0.672622681,0.20614624,-0.060662815,0.138652422,-0.159844793,Pothole
1492639062,40.4535041,-79.94660853,7.099999905,-0.10295105,-0.796936035,0.093383789,0.023020098,-0.065025073,0.071839836,Pothole
1492639062,40.4535041,-79.94660853,7.099999905,-0.061294556,-1.042892456,0.610992432,-0.20796119,-0.248602093,0.118994565,Pothole
1492639062,40.4535041,-79.94660853,7.099999905,0.081741333,-0.883682251,0.29486084,0.040804155,-0.074723773,0.012338958,Pothole
1492639062,40.45347668,-79.94669065,7.980000019,0.023605347,-0.928314209,0.317352295,-0.116358834,0.047555535,-0.03116804,Pothole
1492639063,40.45347668,-79.94669065,7.980000019,0.017089844,-1.03742981,0.267272949,0.17073073,-0.134078709,-0.020296483,Pothole
1492639063,40.45347668,-79.94669065,7.980000019,0.111541748,-0.970687866,0.146133423,0.085408109,0.019641878,-0.082340946,Pothole
1492639063,40.45347668,-79.94669065,7.980000019,0.119125366,-1.064498901,0.485519409,-0.195084806,-0.02211995,0.080158219,Pothole
1492639063,40.45347668,-79.94669065,7.980000019,0.075546265,-0.990890503,0.128097534,-0.032396023,-0.011485947,0.026353311,Pothole
1492639063,40.45344786,-79.94677862,8.409999847,0.09236145,-0.986129761,0.119552612,-0.016777915,-0.037114878,0.038307708,Pothole
1492639064,40.45344786,-79.94677862,8.409999847,0.147277832,-0.819519043,0.218185425,-0.184956538,0.086291746,-0.05542704,Pothole
1492639064,40.45344786,-79.94677862,8.409999847,0.22845459,-0.921386719,0.117706299,-0.066922309,-0.019779031,-0.023024626,Pothole
1492639064,40.45344786,-79.94677862,8.409999847,0.04133606,-0.970932007,0.113891602,-0.223777171,0.259926387,-0.080795514,Pothole
1492639064,40.45344786,-79.94677862,8.409999847,0.237838745,-1.087341309,0.185562134,0.10472375,0.107810886,-0.045053229,Pothole
1492639064,40.45341979,-79.94686691,7.889999866,-0.074081421,-0.912155151,0.070251465,-0.068800636,-0.032523056,0.029233519,Pothole
1492639065,40.45341979,-79.94686691,7.889999866,-0.081985474,-1.032608032,0.05696106,-0.014281468,-0.0403144,0.08738737,Pothole
1492639065,40.45341979,-79.94686691,7.889999866,-0.036392212,-1.028182983,0.057495117,0.034808581,-0.043838827,0.000469515,Pothole
1492639065,40.45341979,-79.94686691,7.889999866,-0.228759766,-1.110595703,-0.144607544,0.029031385,-0.143806704,-0.098489556,Pothole
1492639065,40.45341979,-79.94686691,7.889999866,0.232879639,-0.932159424,-0.099151611,0.095599227,-0.515404495,0.357358135,Pothole
1492639065,40.45339539,-79.94694367,6.5,0.028274536,-0.956161499,-0.010147095,-0.084326865,-0.035618714,-0.005036304,Pothole
1492639066,40.45339539,-79.94694367,6.5,0.371368408,-0.759963989,-0.019989014,-0.232756817,0.004700213,-0.031182953,Pothole
1492639066,40.45339539,-79.94694367,6.5,0.104537964,-0.996841431,-0.003601074,0.072461417,-0.187665505,0.127039442,Pothole
1492639066,40.45339539,-79.94694367,6.5,-0.001068115,-1.008300781,-0.049926758,-0.018610436,-0.042425488,0.013779728,Pothole
1492639066,40.45339539,-79.94694367,6.5,0.021942139,-1.057846069,-0.126373291,0.003159574,-0.043636427,-0.021179321,Pothole
1492639066,40.45337706,-79.9470013,4.440000057,0.007598877,-1.061477661,-0.145858765,0.023589216,-0.005474394,-0.014671354,Pothole
1492639067,40.45337706,-79.9470013,4.440000057,0.022735596,-1.03237915,-0.154907227,-0.027519775,-0.047682035,0.039291213,Pothole
1492639067,40.45337706,-79.9470013,4.440000057,0.029296875,-1.052261353,-0.129241943,-0.017413878,-0.007329019,0.023297333,Pothole
1492639067,40.45337706,-79.9470013,4.440000057,0.031570435,-1.036758423,-0.106491089,-0.023650468,-0.033885529,-0.002287123,Pothole
1492639067,40.45337706,-79.9470013,4.440000057,0.050720215,-1.014556885,-0.003448486,-0.005182511,0.00322349,-0.008591091,Pothole
1492639067,40.45336985,-79.94702398,1.730000019,0.043914795,-1.012588501,0.06111145,-0.017172862,-0.008397213,0.005176919,Pothole
1492639068,40.45336985,-79.94702398,1.730000019,0.040863037,-0.929382324,0.265167236,0.005456817,0.002090581,-0.008479239,Pothole
1492639068,40.45336985,-79.94702398,1.730000019,0.053390503,-0.956192017,0.172286987,-0.020023509,0.002255431,-0.014071611,Pothole
1492639068,40.45336985,-79.94702398,1.730000019,0.060806274,-0.966003418,0.200271606,-0.005444833,-0.006346047,0.005291701,Pothole
1492639068,40.45336985,-79.94702398,1.730000019,0.05015564,-0.965408325,0.213851929,-0.011654792,-0.002052498,-0.005445099,Pothole
1492639068,40.45336854,-79.9470281,0,0.063171387,-0.964935303,0.193344116,-0.01598163,-0.005215002,-0.002282595,Pothole
1492639069,40.45336854,-79.9470281,0,0.058929443,-0.960861206,0.201828003,-0.014946193,-0.005221394,-0.00013955,Pothole
1492639069,40.45336854,-79.9470281,0,0.059951782,-0.962417603,0.203659058,-0.016033561,-0.00627787,0.000918258,Pothole
1492639069,40.45336854,-79.9470281,0,0.056945801,-0.962768555,0.196411133,-0.017067667,-0.004143879,-0.000164051,Pothole
1492639069,40.45336854,-79.9470281,0,0.062759399,-0.957778931,0.20854187,-0.014931545,-0.00522166,-0.001205613,Pothole
1492639069,40.45336854,-79.9470281,0,0.057678223,-0.963104248,0.19871521,-0.014931545,-0.00522166,-0.001205613,Pothole
1492639070,40.45336854,-79.9470281,0,0.060760498,-0.963638306,0.200332642,-0.014931545,-0.00522166,-0.001205613,Pothole
1492639070,40.45336854,-79.9470281,0,0.061843872,-0.961929321,0.203674316,-0.014931545,-0.00522166,-0.001205613,Pothole
1492639070,40.45336854,-79.9470281,0,0.058334351,-0.961547852,0.199798584,-0.014931545,-0.00522166,-0.001205613,Pothole
1492639070,40.45336854,-79.9470281,0,0.059555054,-0.964248657,0.202880859,-0.014931545,-0.00522166,-0.001205613,Pothole
1492639070,40.45336854,-79.94702811,0,0.058532715,-0.962051392,0.199874878,-0.013834856,-0.000973918,-0.001205347,Pothole
1492639071,40.45336854,-79.94702811,0,0.058074951,-0.962814331,0.202377319,-0.017051688,-0.002016546,-0.000169377,Pothole
1492639071,40.45336854,-79.94702811,0,0.059875488,-0.964797974,0.200256348,-0.013873471,-0.004164651,-0.000131294,Pothole
1492639071,40.45336854,-79.94702811,0,0.058807373,-0.963409424,0.202148438,-0.014939535,-0.006285326,-0.00120295,Pothole
1492639071,40.45336854,-79.94702811,0,0.059036255,-0.962860107,0.19972229,-0.018132399,-0.004136954,-0.00017497,Pothole
1492639071,40.45336854,-79.94702811,0,0.059936523,-0.961486816,0.20249939,-0.016004267,-0.006278402,-0.001213869,Pothole
1492639072,40.45336854,-79.94702811,0,0.059539795,-0.963623047,0.203796387,-0.013881461,-0.005228318,-0.000128631,Pothole
1492639072,40.45336854,-79.94702811,0,0.060180664,-0.961013794,0.197525024,-0.013890782,-0.008419584,-0.001186705,Pothole
1492639072,40.45336854,-79.94702811,0,0.057723999,-0.962127686,0.199905396,-0.016010924,-0.005214469,-0.000150469,Pothole
1492639072,40.45336854,-79.94702811,0,0.059814453,-0.961853027,0.199752808,-0.014946193,-0.005221394,-0.00013955,Pothole
1492639072,40.45336853,-79.94702812,0,0.056915283,-0.962585449,0.202957153,-0.014938203,-0.004157727,-0.000142213,Pothole
1492639073,40.45336853,-79.94702812,0,0.05770874,-0.961105347,0.202819824,-0.016004267,-0.006278402,-0.001213869,Pothole
1492639073,40.45336853,-79.94702812,0,0.059539795,-0.963058472,0.199081421,-0.010671286,-0.003121757,-0.0001012,Pothole
1492639073,40.45336853,-79.94702812,0,0.056838989,-0.961547852,0.203262329,-0.014946193,-0.005221394,-0.00013955,Pothole
1492639073,40.45336853,-79.94702812,0,0.06060791,-0.965042114,0.198272705,-0.011761318,-0.008433432,-0.001164867,Pothole
1492639073,40.45336863,-79.9470278,0,0.059265137,-0.964828491,0.201675415,-0.014946193,-0.005221394,-0.00013955,Pothole
1492639074,40.45336863,-79.9470278,0,0.05847168,-0.964569092,0.200531006,-0.017082314,-0.004143612,0.000902013,Pothole
1492639074,40.45336863,-79.9470278,0,0.059265137,-0.965072632,0.200927734,-0.012778113,-0.002044509,-0.001191765,Pothole
1492639074,40.45336863,-79.9470278,0,0.057037354,-0.967483521,0.203460693,-0.01704503,-0.003080478,-0.001232777,Pothole
1492639074,40.45336863,-79.9470278,0,0.05960083,-0.96194458,0.203521729,-0.01496883,-0.006284794,0.000929177,Pothole
1492639074,40.45336863,-79.94702781,0,0.059082031,-0.966659546,0.202911377,-0.019175825,-0.005194229,-0.002315352,Pothole
1492639075,40.45336863,-79.94702781,0,0.058807373,-0.963790894,0.202804565,-0.014938203,-0.004157727,-0.000142213,Pothole
1492639075,40.45336863,-79.94702781,0,0.058120728,-0.962875366,0.20362854,-0.014931545,-0.00522166,-0.001205613,Pothole
1492639075,40.45336863,-79.94702781,0,0.059280396,-0.963287354,0.203033447,-0.011797271,-0.007368967,0.00203066,Pothole
1492639075,40.45336863,-79.94702781,0,0.058395386,-0.961486816,0.203903198,-0.015980298,-0.003087403,-0.001221858,Pothole
1492639075,40.45336863,-79.94702781,0,0.059829712,-0.962356567,0.201309204,-0.017061009,-0.005207812,-0.001227451,Pothole
1492639076,40.45336863,-79.94702781,0,0.057388306,-0.961456299,0.207946777,-0.014976819,-0.00734846,0.00093184,Pothole
1492639076,40.45336863,-79.94702781,0,0.059616089,-0.962188721,0.199447632,-0.013866813,-0.005228584,-0.001194694,Pothole
1492639076,40.45336863,-79.94702781,0,0.060272217,-0.964416504,0.201431274,-0.014952851,-0.004157461,0.000923851,Pothole
1492639076,40.45336863,-79.94702781,0,0.059844971,-0.963287354,0.204803467,-0.014923556,-0.004157993,-0.001208276,Pothole
1492639076,40.4533692,-79.94702602,0,0.056793213,-0.959197998,0.200256348,-0.01496084,-0.005221127,0.000926514,Pothole
1492639077,40.4533692,-79.94702602,0,0.058334351,-0.961090088,0.200164795,-0.013881461,-0.005228318,-0.000128631,Pothole
1492639077,40.4533692,-79.94702602,0,0.058410645,-0.963806152,0.202438354,-0.012846024,-0.005234709,0.002014415,Pothole
1492639077,40.4533692,-79.94702602,0,0.058990479,-0.961990356,0.20135498,-0.011759987,-0.006305833,-0.00010413,Pothole
1492639077,40.4533692,-79.94702602,0,0.058929443,-0.960998535,0.202087402,-0.013904098,-0.006291718,0.000940096,Pothole
1492639077,40.4533692,-79.94702602,0,0.056838989,-0.96484375,0.199188232,-0.013866813,-0.005228584,-0.001194694,Pothole
1492639078,40.4533692,-79.94702602,0,0.06036377,-0.963760376,0.196899414,-0.01602424,-0.003086604,0.001976332,Pothole
1492639078,40.4533692,-79.94702602,0,0.056991577,-0.961380005,0.199539185,-0.017061009,-0.005207812,-0.001227451,Pothole
1492639078,40.4533692,-79.94702602,0,0.058502197,-0.963745117,0.198165894,-0.017114272,-0.008398278,0.000912665,Pothole
1492639078,40.4533692,-79.94702603,0,0.057846069,-0.959976196,0.198516846,-0.014923556,-0.004157993,-0.001208276,Pothole
1492639078,40.4533692,-79.94702603,0,0.05897522,-0.964935303,0.203994751,-0.014946193,-0.005221394,-0.00013955,Pothole
1492639079,40.4533692,-79.94702603,0,0.057479858,-0.966247559,0.200637817,-0.010664629,-0.00418569,-0.0011646,Pothole
1492639079,40.4533692,-79.94702603,0,0.061920166,-0.961639404,0.195404053,-0.015996277,-0.005214736,-0.001216532,Pothole
1492639079,40.4533692,-79.94702603,0,0.057662964,-0.961608887,0.206329346,-0.017127588,-0.006270413,0.003039466,Pothole
1492639079,40.45336867,-79.94702769,0,0.060043335,-0.965148926,0.197189331,-0.013866813,-0.005228584,-0.001194694,Pothole
1492639079,40.45336867,-79.94702769,0,0.056900024,-0.966796875,0.200683594,-0.014954182,-0.00628506,-0.000136886,Pothole
1492639080,40.45336867,-79.94702769,0,0.060409546,-0.959060669,0.207122803,-0.018148378,-0.006264288,-0.000169643,Pothole
1492639080,40.45336867,-79.94702769,0,0.054550171,-0.962203979,0.208618164,-0.016058861,-0.011596469,-0.00013449,Pothole
1492639080,40.45336867,-79.94702769,0,0.06137085,-0.962387085,0.202850342,-0.014906245,9.69E-05,-0.000152865,Pothole
1492639080,40.45336867,-79.94702769,0,0.057952881,-0.963088989,0.203796387,-0.012832708,-0.007362575,-0.000112385,Pothole
1492639080,40.45336867,-79.9470277,0,0.063018799,-0.965515137,0.194992065,-0.010649981,-0.004185957,-0.002230664,Pothole
1492639081,40.45336867,-79.9470277,0,0.056350708,-0.963134766,0.205429077,-0.018163025,-0.006264021,0.00089642,Pothole
1492639081,40.45336867,-79.9470277,0,0.060943604,-0.962814331,0.20211792,-0.014907577,-0.00203066,-0.001213603,Pothole
1492639081,40.45336867,-79.9470277,0,0.06137085,-0.962341309,0.201416016,-0.014947524,-0.007348993,-0.001200287,Pothole
1492639081,40.45336867,-79.94702771,0,0.055343628,-0.962921143,0.205581665,-0.016010924,-0.005214469,-0.000150469,Pothole
1492639081,40.45336867,-79.94702771,0,0.062408447,-0.96321106,0.199493408,-0.012831376,-0.005234976,0.000948352,Pothole
1492639082,40.45336867,-79.94702771,0,0.055297852,-0.962966919,0.203659058,-0.018200309,-0.007327155,0.00303121,Pothole
1492639082,40.45336867,-79.94702771,0,0.067657471,-0.96496582,0.235092163,-0.019267704,-0.01157543,0.000898817,Pothole
1492639082,40.45336867,-79.94702771,0,0.074493408,-0.928894043,0.399551392,0.030859912,-0.004455735,-0.000738761,Pothole
1492639082,40.45336706,-79.94703277,0.189999998,0.066665649,-0.901275635,0.415267944,-0.003367301,-0.019124692,0.002147307,Pothole
1492639082,40.45336706,-79.94703277,0.189999998,0.082214355,-0.922088623,0.405914307,-0.02445421,-0.003032808,-0.0045074,Pothole
1492639083,40.45336706,-79.94703277,0.189999998,0.039916992,-0.916595459,0.42376709,-0.011021492,-0.024391626,0.013810887,Pothole
1492639083,40.45336706,-79.94703277,0.189999998,0.158615112,-0.832077026,0.423690796,-0.096112951,0.096359027,-0.005497563,Pothole
1492639083,40.45336706,-79.94703277,0.189999998,0.081954956,-0.866210938,0.41583252,-0.068775603,0.086598542,-0.062768044,Pothole
1492639083,40.45336146,-79.94705036,2.049999952,0.139297485,-0.882293701,0.384750366,-0.033012811,0.065094848,-0.042088332,Pothole
1492639083,40.45336146,-79.94705036,2.049999952,0.047943115,-0.914520264,0.472259521,-0.034099381,-0.009352223,-0.003523628,Pothole
1492639084,40.45336146,-79.94705036,2.049999952,0.092422485,-0.911239624,0.348251343,-0.020918331,-0.070067502,0.011695006,Pothole
1492639084,40.45336146,-79.94705036,2.049999952,-0.078430176,-0.936233521,0.425369263,-0.045679072,-0.24858638,0.166503228,Pothole
1492639084,40.45336146,-79.94705036,2.049999952,0.079818726,-0.904922485,0.353820801,0.033573939,0.040199884,-0.018951853,Pothole
1492639084,40.45336146,-79.94705036,2.049999952,0.071990967,-0.980560303,0.303085327,-0.037838992,-0.01039778,-0.041942923,Pothole
1492639084,40.4533503,-79.94708546,4.190000057,0.108917236,-0.951553345,0.253112793,-0.042771166,0.076862291,-0.023026756,Pothole
1492639085,40.4533503,-79.94708546,4.190000057,0.099349976,-0.863418579,0.29977417,-0.01535845,0.042645199,-0.021591579,Pothole
1492639085,40.4533503,-79.94708546,4.190000057,0.060256958,-1.013900757,0.253677368,-0.032858348,0.11296357,-0.027283286,Pothole
1492639085,40.4533503,-79.94708546,4.190000057,0.093658447,-0.963531494,0.341949463,-0.069950057,0.023854999,-0.011439875,Pothole
1492639085,40.4533342,-79.9471361,5.050000191,-0.022750854,-0.859802246,0.289215088,-0.041449972,0.060905961,0.027140008,Pothole
1492639085,40.4533342,-79.9471361,5.050000191,0.054290771,-0.921844482,0.324401855,-0.036804886,0.010872089,-0.028126443,Pothole
1492639086,40.4533342,-79.9471361,5.050000191,0.221099854,-0.882080078,0.240631104,-0.141392549,0.075358937,-0.131720214,Pothole
1492639086,40.4533342,-79.9471361,5.050000191,0.115768433,-0.957824707,0.267028809,-0.005133776,-0.063785105,0.028899825,Pothole
1492639086,40.4533342,-79.9471361,5.050000191,0.091934204,-0.900894165,0.308685303,0.028962942,-0.035284221,0.043036151,Pothole
1492639086,40.4533342,-79.9471361,5.050000191,0.041564941,-0.971328735,0.344787598,-0.057271812,0.018454641,-0.007031278,Pothole
1492639086,40.45331174,-79.94720673,6.429999828,0.159393311,-1.013565063,0.340179443,-0.092364019,-0.004721518,-0.023323965,Pothole
1492639087,40.45331174,-79.94720673,6.429999828,0.010421753,-0.955459595,0.356307983,-0.015557388,-0.02223127,0.035083153,Pothole
1492639087,40.45331174,-79.94720673,6.429999828,-0.19128418,-0.870330811,0.359344482,0.037418212,-0.111932927,0.006003031,Pothole
1492639087,40.45331174,-79.94720673,6.429999828,0.007598877,-0.85736084,0.305130005,-0.039776708,0.038547925,-0.029294506,Pothole
1492639087,40.45331174,-79.94720673,6.429999828,0.018997192,-0.955810547,0.360443115,-0.16810512,-0.025503496,-0.025112011,Pothole
1492639087,40.4532873,-79.94728362,7.730000019,0.016494751,-0.996200562,0.359451294,-0.103957558,0.009182047,-0.024544758,Pothole
1492639088,40.4532873,-79.94728362,7.730000019,-0.043228149,-0.953094482,0.146286011,0.143474342,0.025652899,-0.042312037,Pothole
1492639088,40.4532873,-79.94728362,7.730000019,0.051300049,-1.101028442,0.253143311,-0.07699758,-0.03460112,0.004632036,Pothole
1492639088,40.4532873,-79.94728362,7.730000019,0.061447144,-0.778900146,0.326309204,-0.238325487,-0.02398363,-0.029033516,Pothole
1492639088,40.4532873,-79.94728362,7.730000019,0.02142334,-0.940689087,0.29699707,-0.136760246,-0.106537629,0.052185441,Pothole
1492639088,40.45325871,-79.94737353,8.56000042,-0.033721924,-0.805496216,0.286590576,-0.051950816,-0.009239038,-0.021832328,Pothole
1492639089,40.45325871,-79.94737353,8.56000042,-0.013214111,-0.960830688,0.232879639,0.000408263,-0.05424939,0.018269818,Pothole
1492639089,40.45325871,-79.94737353,8.56000042,-0.003326416,-0.849563599,0.235671997,-0.149545284,0.017986724,-0.034630149,Pothole
1492639089,40.45325871,-79.94737353,8.56000042,-0.026031494,-0.934661865,0.308410645,-0.043283292,0.128985946,-0.034894867,Pothole
1492639089,40.45325871,-79.94737353,8.56000042,-0.069473267,-1.056396484,0.193969727,-0.076625536,0.061122743,-0.047855673,Pothole
1492639089,40.45322644,-79.94748106,8.960000038,-0.188262939,-0.931640625,0.350601196,-6.82E-05,0.087208938,-0.102582302,Pothole
1492639090,40.45322644,-79.94748106,8.960000038,-0.064544678,-0.964187622,0.223342896,-0.112140387,0.013499031,0.030803453,Pothole
1492639090,40.45322644,-79.94748106,8.960000038,-0.021255493,-1.033859253,0.149902344,0.089645731,-0.061235128,-0.124737405,Pothole
1492639090,40.45322644,-79.94748106,8.960000038,-0.00869751,-1.008148193,0.265945435,0.151899518,0.04579918,-0.101985754,Pothole
1492639090,40.45322644,-79.94748106,8.960000038,0.008575439,-0.947479248,0.200469971,-0.01967863,0.073524551,-0.000391218,Pothole
1492639090,40.45319745,-79.94757911,9.390000343,0.103225708,-1.133026123,0.089508057,-0.01306387,-0.487025584,0.453197846,Pothole
1492639091,40.45319745,-79.94757911,9.390000343,0.041030884,-0.868804932,0.225616455,0.024314128,0.174284186,-0.047114249,Pothole
1492639091,40.45319745,-79.94757911,9.390000343,-0.878295898,-0.998733521,0.222579956,0.072084846,0.987629562,-0.601022994,Pothole
1492639091,40.45319745,-79.94757911,9.390000343,-0.262191772,-1.130065918,0.390457153,-0.063631174,0.097192863,-0.121384486,Pothole
1492639091,40.45319745,-79.94757911,9.390000343,0.03302002,-0.945251465,0.126434326,-0.044957355,0.107715279,-0.079638104,Pothole
1492639091,40.45316563,-79.94768626,9.880000114,-0.159194946,-0.715789795,0.317993164,-0.016865267,-0.008402806,-0.017210412,Pothole
1492639092,40.45316563,-79.94768626,9.880000114,0.745254517,-0.933380127,0.095687866,-0.217267606,0.603369505,-0.677628823,Pothole
1492639092,40.45316563,-79.94768626,9.880000114,-0.030654907,-0.967758179,0.429443359,0.154206614,-0.447714663,0.314068718,Pothole
1492639092,40.45316563,-79.94768626,9.880000114,-0.051681519,-1.105804443,0.296417236,-0.002335859,-0.025513882,0.001108141,Pothole
1492639092,40.45316563,-79.94768626,9.880000114,0.086517334,-0.932632446,0.328979492,-0.154129915,0.063751815,-0.063582971,Pothole
1492639092,40.45313142,-79.94780187,10.77000046,0.120941162,-0.849029541,0.258895874,-0.30614821,0.094524376,-0.066285014,Pothole
1492639093,40.45313142,-79.94780187,10.77000046,0.079559326,-0.970169067,0.18208313,-0.147206496,-0.066047194,0.059437494,Pothole
1492639093,40.45313142,-79.94780187,10.77000046,0.043991089,-0.906478882,0.233810425,-0.121278226,0.057169546,0.022067485,Pothole
1492639093,40.45313142,-79.94780187,10.77000046,-0.013214111,-0.842803955,0.253036499,0.075614867,-0.107912086,0.095945705,Pothole
1492639093,40.45313142,-79.94780187,10.77000046,-0.033004761,-0.940124512,0.385177612,0.086069105,-0.112233065,0.107792244,Pothole
1492639093,40.45309582,-79.94792467,11.21000004,-0.090408325,-0.881317139,0.235107422,-0.073375681,-0.190985135,0.043456397,Pothole
1492639094,40.45309582,-79.94792467,11.21000004,0.028610229,-1.172439575,0.194320679,0.068735389,-0.001517736,-0.043007122,Pothole
1492639094,40.45309582,-79.94792467,11.21000004,0.025009155,-0.934402466,0.425872803,-0.10938588,0.033673808,-0.081172884,Pothole
1492639094,40.45309582,-79.94792467,11.21000004,0.260269165,-1.283340454,0.038467407,0.197484314,0.134840373,-0.193443233,Pothole
1492639094,40.45305948,-79.94805004,11.55000019,0.30355835,-0.717193604,0.165054321,-0.250173891,0.046319029,0.096477005,Pothole
1492639094,40.45305948,-79.94805004,11.55000019,0.170394897,-0.91394043,0.40838623,0.049439189,0.089045721,0.093037,Pothole
1492639095,40.45305948,-79.94805004,11.55000019,-0.26512146,-1.094573975,-0.017425537,-0.022352444,0.153296879,-0.149894424,Pothole
1492639095,40.45305948,-79.94805004,11.55000019,-0.021072388,-1.152557373,0.068847656,0.456806962,-0.121016969,0.170252426,Pothole
1492639095,40.45305948,-79.94805004,11.55000019,0.62979126,-0.844863892,0.343765259,-0.082309787,-0.7439924,0.47021145,Pothole
1492639095,40.45305948,-79.94805004,11.55000019,0.492126465,-0.785629272,0.152908325,-0.091430049,-0.215323498,0.10410856,Pothole
1492639095,40.45302289,-79.94817625,11.77000046,0.214355469,-1.018600464,0.063308716,0.115703697,-0.181583911,0.005918077,Pothole
1492639096,40.45302289,-79.94817625,11.77000046,0.029022217,-0.623916626,0.385894775,-0.248521666,-0.112181666,0.122492094,Pothole
1492639096,40.45302289,-79.94817625,11.77000046,-0.09588623,-1.232559204,0.280487061,0.362769678,-0.267207469,0.114223778,Pothole
1492639096,40.45302289,-79.94817625,11.77000046,-0.055160522,-1.336547852,0.25151062,-0.434569833,-0.024843565,-0.08541743,Pothole
1492639096,40.45302289,-79.94817625,11.77000046,0.726074219,-1.387664795,0.124145508,0.191096456,0.677351321,-0.363370488,Pothole
1492639096,40.45298439,-79.9483097,12.15999985,0.067367554,-1.033218384,0.183044434,-0.211229154,-0.009272062,-0.055449411,Pothole
1492639097,40.45298439,-79.9483097,12.15999985,0.111923218,-1.095458984,0.185928345,0.003624296,0.008481902,-0.026640133,Pothole
1492639097,40.45298439,-79.9483097,12.15999985,-0.170455933,-1.210845947,-0.030517578,0.187217029,-0.106532835,-0.042589272,Pothole
1492639097,40.45298439,-79.9483097,12.15999985,0.219360352,-0.951507568,-0.171325684,0.055694688,-0.284366482,0.054614776,Pothole
1492639097,40.45298439,-79.9483097,12.15999985,0.277633667,-0.863082886,0.294296265,0.143685797,-0.164735954,0.071200144,Pothole
1492639097,40.45294683,-79.94844401,12.01000023,0.097305298,-0.701370239,0.214416504,-0.28273716,0.006100769,0.041870485,Pothole
1492639098,40.45294683,-79.94844401,12.01000023,0.098327637,-1.180389404,0.355819702,0.083683446,0.081349451,-0.078252994,Pothole
1492639098,40.45294683,-79.94844401,12.01000023,-0.040023804,-1.04284668,0.281173706,-0.01007607,0.058568505,-0.009850234,Pothole
1492639098,40.45294683,-79.94844401,12.01000023,0.207672119,-0.956192017,-0.015426636,0.017213342,0.07753181,-0.048003479,Pothole
1492639098,40.45294683,-79.94844401,12.01000023,-0.108642578,-0.470993042,0.307769775,0.049647448,0.145411525,0.031053257,Pothole
1492639098,40.4529087,-79.94858035,12.26000023,-0.012008667,-1.605606079,0.385498047,-0.305257117,-0.105463576,-0.084951643,Pothole
1492639099,40.4529087,-79.94858035,12.26000023,0.07081604,-0.804031372,0.122756958,0.065103902,-0.072751968,0.027509655,Pothole
1492639099,40.4529087,-79.94858035,12.26000023,0.031356812,-1.259643555,0.253295898,0.043083555,-0.073664101,0.079531045,Pothole
1492639099,40.4529087,-79.94858035,12.26000023,-0.038986206,-0.890228271,0.171417236,0.100560164,0.068488247,0.004051467,Pothole
1492639099,40.4529087,-79.94858035,12.26000023,0.043991089,-1.126235962,0.135971069,0.177708478,-0.051141215,0.059526977,Pothole
1492639099,40.45287063,-79.94871649,12.23999977,-0.127288818,-0.884384155,0.274047852,-0.049822418,-0.136885415,0.063815998,Pothole
1492639100,40.45287063,-79.94871649,12.23999977,-0.108215332,-1.006164551,0.239334106,0.022230205,-0.054397462,-0.019890085,Pothole
1492639100,40.45287063,-79.94871649,12.23999977,-0.045120239,-1.000732422,0.224960327,-0.030869233,-0.06894711,-0.038521826,Pothole
1492639100,40.45287063,-79.94871649,12.23999977,-0.020263672,-1.029983521,0.214630127,0.025155953,0.024296285,-0.034990208,Pothole
1492639100,40.45287063,-79.94871649,12.23999977,-0.044845581,-0.981063843,0.11730957,-0.036982253,0.122550684,-0.10944873,Pothole
1492639100,40.45285831,-79.94886747,11.98999977,0.000366211,-1.03024292,0.197860718,0.121156785,0.085358574,-0.090674244,Pothole
1492639101,40.45285831,-79.94886747,11.98999977,0.08531189,-1.032958984,0.270111084,-0.083155341,-0.131345773,0.090115779,Pothole
1492639101,40.45285831,-79.94886747,11.98999977,0.072509766,-1.021484375,0.15171814,0.071900822,0.120787938,-0.051820055,Pothole
1492639101,40.45285831,-79.94886747,11.98999977,0.22807312,-1.031890869,0.145477295,0.014643658,0.197751961,-0.028081968,Pothole
1492639101,40.45285831,-79.94886747,11.98999977,-0.084854126,-1.004562378,0.267944336,-0.095424258,-0.099369997,-0.007117831,Pothole
1492639101,40.45281837,-79.94899755,11.80000019,-0.004180908,-0.996490479,0.128463745,-0.011847072,-0.091396759,0.037432061,Pothole
1492639102,40.45281837,-79.94899755,11.80000019,-0.136184692,-0.998962402,0.208450317,0.068518607,-0.111061541,0.068159613,Pothole
1492639102,40.45281837,-79.94899755,11.80000019,-0.032684326,-1.101119995,0.197357178,0.09421465,-0.094209324,0.067312994,Pothole
1492639102,40.45281837,-79.94899755,11.80000019,-0.024475098,-0.898834229,0.091445923,-0.042436939,0.142812546,-0.011465175,Pothole
1492639102,40.45281837,-79.94899755,11.80000019,0.090118408,-0.84173584,0.143508911,0.115366807,-0.169875855,0.03680462,Pothole
1492639102,40.45278006,-79.94912387,11.36999989,-0.198944092,-0.879974365,0.381729126,0.270677568,0.093980025,0.037713823,Pothole
1492639103,40.45278006,-79.94912387,11.36999989,-0.14151001,-0.904281616,0.10874939,-0.143862364,-0.217119534,0.043868388,Pothole
1492639103,40.45278006,-79.94912387,11.36999989,0.030288696,-1.127609253,0.224624634,0.116925555,-0.117764983,0.0292226,Pothole
1492639103,40.45278006,-79.94912387,11.36999989,0.016662598,-1.025604248,0.045837402,0.079740369,-0.019665847,-0.001265268,Pothole
1492639103,40.45278006,-79.94912387,11.36999989,-0.081985474,-1.029602051,0.100158691,-0.052829127,0.007785485,-0.026150111,Pothole
1492639103,40.45272312,-79.94923049,10.52000046,0.030792236,-1.022247314,0.004058838,0.148815311,-0.016934509,-0.066670374,Pothole
1492639104,40.45272312,-79.94923049,10.52000046,-0.060241699,-1.026931763,0.089614868,-0.060549631,-0.147452838,0.06373344,Pothole
1492639104,40.45272312,-79.94923049,10.52000046,-0.022460938,-0.970321655,-0.009689331,-0.002538259,0.002148905,0.030888674,Pothole
1492639104,40.45272312,-79.94923049,10.52000046,0.130966187,-0.997512817,0.12322998,-0.055426241,0.123738454,-0.084051495,Pothole
1492639104,40.45272312,-79.94923049,10.52000046,0.06463623,-0.92477417,0.099517822,-0.154360812,-0.005379319,-0.006897587,Pothole
1492639104,40.45269232,-79.94933178,9.479999542,0.203903198,-1.090621948,0.006103516,0.027963458,-0.071448085,0.018596321,Pothole
1492639105,40.45269232,-79.94933178,9.479999542,0.012298584,-0.843902588,0.06338501,-0.029348834,-0.098724181,0.067125774,Pothole
1492639105,40.45269232,-79.94933178,9.479999542,0.036407471,-1.049301147,-0.032241821,-0.056481918,-0.074086478,0.040129044,Pothole
1492639105,40.45269232,-79.94933178,9.479999542,0.077514648,-1.012954712,-0.094696045,-0.119901371,0.197567671,-0.001737446,Pothole
1492639105,40.45269232,-79.94933178,9.479999542,0.028091431,-0.928024292,0.018325806,-0.021927936,-0.000926247,-0.032208537,Pothole
1492639105,40.45266052,-79.94943636,7.980000019,0.023178101,-1.117355347,-0.024337769,0.02098491,0.047726244,-0.028696093,Pothole
1492639106,40.45266052,-79.94943636,7.980000019,-0.034912109,-0.95249939,-0.194702148,0.15552701,-0.098858138,0.097806722,Pothole
1492639106,40.45266052,-79.94943636,7.980000019,0.026184082,-1.015060425,-0.056442261,-0.219679897,0.137575706,-0.058047324,Pothole
1492639106,40.45266052,-79.94943636,7.980000019,0.113479614,-1.105453491,0.063446045,-0.137775443,0.173213595,-0.031711591,Pothole
1492639106,40.45264437,-79.94948947,5.639999866,0.105056763,-0.953353882,-0.071411133,-0.06211477,0.084436854,-0.006184925,Pothole
1492639106,40.45264437,-79.94948947,5.639999866,0.065948486,-1.003585815,-0.053878784,-0.027693147,0.082081288,-0.032481777,Pothole
1492639107,40.45264437,-79.94948947,5.639999866,0.035842896,-1.026916504,-0.002227783,0.009429454,-0.010697652,0.005455219,Pothole
1492639107,40.45264437,-79.94948947,5.639999866,0.024841309,-0.98815918,0.010253906,-0.020196615,0.018215756,0.00720971,Pothole
1492639107,40.45264437,-79.94948947,5.639999866,0.023483276,-0.995635986,0.027770996,-0.016302541,-0.003081544,0.022231536,Pothole
1492639107,40.45264437,-79.94948947,5.639999866,0.029541016,-0.999816895,0.032531738,0.023156452,-0.018232267,0.009880061,Pothole
1492639107,40.45263257,-79.94952828,3.190000057,0.030075073,-0.992904663,0.051574707,-0.011625497,0.009648899,-0.00121014,Pothole
1492639108,40.45263257,-79.94952828,3.190000057,0.02532959,-1.003219604,0.101730347,-0.035157455,-0.010409231,-0.004597948,Pothole
1492639108,40.45263257,-79.94952828,3.190000057,0.016815186,-1.029174805,0.047454834,0.03341628,-0.052336442,0.019669043,Pothole
1492639108,40.45263257,-79.94952828,3.190000057,0.03565979,-0.999206543,0.081970215,-0.007454454,-0.01378106,-0.007504255,Pothole
1492639108,40.45263257,-79.94952828,3.190000057,0.046051025,-0.980270386,0.08807373,-0.024659274,-0.003029079,0.010417487,Pothole
1492639108,40.45262631,-79.94954887,1.659999967,0.041427612,-0.986434937,0.110794067,-0.011845208,-0.013750966,0.002046639,Pothole
1492639109,40.45262631,-79.94954887,1.659999967,0.043212891,-0.985061646,0.125228882,-0.025594842,-0.007279751,-0.001309476,Pothole
1492639109,40.45262631,-79.94954887,1.659999967,0.03453064,-0.988357544,0.130859375,-0.014967498,-0.004157194,0.001989914,Pothole
1492639109,40.45262631,-79.94954887,1.659999967,0.054718018,-0.985412598,0.129501343,-0.013812219,8.95E-05,-0.002274073,Pothole
1492639109,40.45262631,-79.94954887,1.659999967,0.050308228,-0.980285645,0.127746582,-0.018000572,0.007562579,-0.003402455,Pothole
1492639109,40.45262549,-79.94955156,0.589999974,0.045715332,-0.989715576,0.128799438,-0.01165346,7.51E-05,-0.004384362,Pothole
1492639110,40.45262549,-79.94955156,0.589999974,0.048217773,-0.965362549,0.232223511,-0.006526875,-0.010594055,0.004225371,Pothole
1492639110,40.45262549,-79.94955156,0.589999974,0.041534424,-0.971038818,0.179855347,-0.013920077,-0.008419051,0.000945422,Pothole
1492639110,40.45262549,-79.94955156,0.589999974,0.043502808,-0.954620361,0.190063477,-0.018194983,-0.010518687,0.000907073,Pothole
1492639110,40.45262549,-79.94955156,0.589999974,0.048019409,-0.968032837,0.202651978,-0.013842845,-0.002037585,-0.001202684,Pothole
1492639110,40.45262581,-79.94955052,0,0.047973633,-0.973312378,0.189453125,-0.014923556,-0.004157993,-0.001208276,Pothole
1492639111,40.45262581,-79.94955052,0,0.044448853,-0.955703735,0.199005127,-0.014908908,-0.00415826,-0.00227434,Pothole
1492639111,40.45262581,-79.94955052,0,0.046356201,-0.967910767,0.189483643,-0.015014103,-0.008411594,0.00306663,Pothole
1492639111,40.45262581,-79.94955052,0,0.045150757,-0.963272095,0.196609497,-0.016018914,-0.006278136,-0.000147805,Pothole
1492639111,40.45262581,-79.94955052,0,0.048141479,-0.962234497,0.194580078,-0.012810071,-0.006299175,-0.001181112,Pothole
1492639111,40.45262577,-79.94955066,0,0.043579102,-0.969085693,0.193954468,-0.019181151,-0.002002697,-0.000191215,Pothole
1492639112,40.45262577,-79.94955066,0,0.048812866,-0.962921143,0.192886353,-0.016017582,-0.004150537,0.000912932,Pothole
1492639112,40.45262577,-79.94955066,0,0.042602539,-0.964813232,0.192352295,-0.019151857,-0.00200323,-0.002323342,Pothole
1492639112,40.45262577,-79.94955066,0,0.05291748,-0.964431763,0.187637329,-0.014946193,-0.005221394,-0.00013955,Pothole
1492639112,40.45262577,-79.94955066,0,0.045501709,-0.964050293,0.198272705,-0.016004267,-0.006278402,-0.001213869,Pothole
1492639112,40.45262573,-79.9495508,0,0.049026489,-0.964172363,0.193511963,-0.015996277,-0.005214736,-0.001216532,Pothole
1492639113,40.45262573,-79.9495508,0,0.04737854,-0.964309692,0.189086914,-0.012787434,-0.005235775,-0.002249838,Pothole
1492639113,40.45262573,-79.9495508,0,0.048065186,-0.963928223,0.197433472,-0.018147046,-0.004136688,0.000891094,Pothole
1492639113,40.45262573,-79.9495508,0,0.04498291,-0.968215942,0.192184448,-0.012831376,-0.005234976,0.000948352,Pothole
1492639113,40.45262573,-79.9495508,0,0.045715332,-0.961990356,0.194396973,-0.013888119,-0.004164385,0.00093477,Pothole
1492639113,40.45262627,-79.949549,0,0.047119141,-0.962661743,0.196228027,-0.015965651,-0.003087669,-0.002287922,Pothole
1492639114,40.45262627,-79.949549,0,0.045578003,-0.968109131,0.193649292,-0.016018914,-0.006278136,-0.000147805,Pothole
1492639114,40.45262627,-79.949549,0,0.046539307,-0.961807251,0.196990967,-0.015994946,-0.003087136,-0.000155795,Pothole
1492639114,40.45262627,-79.949549,0,0.050369263,-0.96572876,0.196640015,-0.016018914,-0.006278136,-0.000147805,Pothole
1492639114,40.45262627,-79.949549,0,0.04725647,-0.966659546,0.199737549,-0.015994946,-0.003087136,-0.000155795,Pothole
1492639114,40.45262577,-79.94955064,0,0.050720215,-0.95501709,0.252151489,-0.020240557,-0.005187305,-0.002326271,Pothole
1492639115,40.45262577,-79.94955064,0,0.035217285,-0.959014893,0.250106812,-0.010871024,-0.018011491,0.006332464,Pothole
1492639115,40.45262577,-79.94955064,0,0.040267944,-0.956970215,0.248443604,-0.010619355,-0.00205889,-0.003302053,Pothole
1492639115,40.45262577,-79.94955064,0,0.051315308,-0.942565918,0.241333008,-0.008520518,-0.004199805,-0.002208826,Pothole
1492639115,40.45262577,-79.94955064,0,0.047805786,-0.952880859,0.240768433,-0.011782624,-0.007369233,0.000964597,Pothole
1492639115,40.45262291,-79.94956005,0.150000006,0.053283691,-0.951690674,0.245727539,-0.016033561,-0.00627787,0.000918258,Pothole
1492639116,40.45262291,-79.94956005,0.150000006,0.051422119,-0.950744629,0.263549805,-0.011638813,7.48E-05,-0.005450425,Pothole
1492639116,40.45262291,-79.94956005,0.150000006,0.046096802,-0.961166382,0.246948242,-0.012948556,-0.016934775,0.003109773,Pothole
1492639116,40.45262291,-79.94956005,0.150000006,0.044921875,-0.952133179,0.225769043,-0.017031714,-0.005208344,-0.003359578,Pothole
1492639116,40.45262291,-79.94956005,0.150000006,0.054321289,-0.952011108,0.234207153,-0.020348415,-0.013695839,0.000893224,Pothole
1492639116,40.4526219,-79.94956339,0.74000001,0.037261963,-0.954528809,0.245605469,-0.012767461,-0.008427573,-0.005440039,Pothole
1492639117,40.4526219,-79.94956339,0.74000001,0.054428101,-0.975341797,0.222061157,0.001140632,-0.007454987,-0.009565009,Pothole
1492639117,40.4526219,-79.94956339,0.74000001,0.064239502,-0.950393677,0.212905884,0.001039432,-0.005325523,-0.001041829,Pothole
1492639117,40.4526219,-79.94956339,0.74000001,0.051528931,-0.947860718,0.231887817,-0.008619055,-0.009517072,0.002068744,Pothole
1492639117,40.4526219,-79.94956339,0.74000001,0.050735474,-0.952819824,0.231414795,-0.002124137,-0.003177684,-0.002145975,Pothole
1492639117,40.45261865,-79.94957407,1.00999999,0.051055908,-0.959854126,0.22454834,-0.004201669,-0.002100968,-0.005368666,Pothole
1492639118,40.45261865,-79.94957407,1.00999999,0.06350708,-0.954605103,0.225463867,-0.004196343,-0.0052925,-0.007492804,Pothole
1492639118,40.45261865,-79.94957407,1.00999999,0.074295044,-0.955368042,0.219848633,-0.012659603,8.10E-05,-0.008659535,Pothole
1492639118,40.45261865,-79.94957407,1.00999999,0.056518555,-0.96685791,0.212905884,-0.021422468,-0.01688018,-0.000175769,Pothole
1492639118,40.45261865,-79.94957407,1.00999999,0.042434692,-0.948791504,0.230728149,-0.02113751,-0.006247243,-0.015127288,Pothole
1492639118,40.45261538,-79.94958484,1.24000001,0.076385498,-0.934402466,0.224761963,-0.012975187,-0.012679044,0.007363374,Pothole
1492639119,40.45261538,-79.94958484,1.24000001,0.038574219,-0.961669922,0.227432251,-0.025608158,-0.016853815,-0.005549761,Pothole
1492639119,40.45261538,-79.94958484,1.24000001,0.081954956,-0.954940796,0.237991333,-0.017985925,-0.015841547,-0.017202689,Pothole
1492639119,40.45261538,-79.94958484,1.24000001,0.067672729,-0.955368042,0.250717163,-0.011827897,-0.009496033,0.00310205,Pothole
1492639119,40.45261538,-79.94958484,1.24000001,0.081298828,-0.967315674,0.262634277,-0.011001518,-0.015881495,0.016987772,Pothole
1492639119,40.45261066,-79.94960034,1.399999976,0.044204712,-0.938735962,0.245101929,-0.035117507,-0.016792829,-0.010978349,Pothole
1492639120,40.45261066,-79.94960034,1.399999976,0.090454102,-0.932067871,0.231048584,-0.021090904,0.009709086,-0.009836918,Pothole
1492639120,40.45261066,-79.94960034,1.399999976,0.109130859,-0.968200684,0.197631836,-0.040923998,0.035364915,-0.025033182,Pothole
1492639120,40.45261066,-79.94960034,1.399999976,0.113555908,-0.930633545,0.258529663,-0.022681078,0.040563672,-0.032323319,Pothole
1492639120,40.45261066,-79.94960034,1.399999976,0.096206665,-0.959625244,0.242279053,-0.000334227,-0.019142536,0.013906761,Pothole
1492639120,40.45260559,-79.94961702,1.649999976,0.069747925,-0.940078735,0.256912231,-0.012515792,0.007525028,-0.015074557,Pothole
1492639121,40.45260559,-79.94961702,1.649999976,0.120391846,-0.963394165,0.236602783,-0.003706321,0.028740568,-0.024635039,Pothole
1492639121,40.45260559,-79.94961702,1.649999976,0.130752563,-0.918487549,0.233779907,-0.029189311,0.071457938,-0.006880543,Pothole
1492639121,40.45260559,-79.94961702,1.649999976,0.10887146,-0.916030884,0.254547119,-0.052947105,0.09288014,-0.048761414,Pothole
1492639121,40.45260559,-79.94961702,1.649999976,0.146514893,-0.974746704,0.25112915,0.020879716,0.066876769,-0.010620953,Pothole
1492639121,40.45259989,-79.94963575,2.039999962,0.164718628,-0.931747437,0.322006226,-0.000607467,0.12657978,-0.041915226,Pothole
1492639122,40.45259989,-79.94963575,2.039999962,0.176986694,-0.941329956,0.305282593,-0.025035046,0.16609896,-0.025207885,Pothole
1492639122,40.45259989,-79.94963575,2.039999962,0.180130005,-0.891265869,0.293685913,-0.044557881,0.160898606,-0.079771262,Pothole
1492639122,40.45259989,-79.94963575,2.039999962,0.298614502,-0.912399292,0.293991089,-0.002294313,0.276570611,-0.070041137,Pothole
1492639122,40.45259989,-79.94963575,2.039999962,0.231704712,-0.951568604,0.306610107,-0.035952142,0.301264772,-0.009675264,Pothole
1492639122,40.45258957,-79.94966972,3.029999971,0.111053467,-0.920883179,0.293930054,-0.010861969,0.262809791,0.003475425,Pothole
1492639123,40.45258957,-79.94966972,3.029999971,0.084106445,-0.910293579,0.306381226,-0.044646564,0.281098517,-0.085413435,Pothole
1492639123,40.45258957,-79.94966972,3.029999971,0.317626953,-0.947616577,0.203948975,-0.026443592,0.327786661,-0.067221914,Pothole
1492639123,40.45258957,-79.94966972,3.029999971,0.187942505,-0.874649048,0.273468018,-0.018360365,0.213923741,-0.019931897,Pothole
1492639123,40.45258957,-79.94966972,3.029999971,0.151596069,-0.925964355,0.293685913,-0.027814587,0.283119058,-0.069253107,Pothole
1492639123,40.4525789,-79.9497048,3.650000095,0.268127441,-1.166976929,0.332168579,-0.143002429,0.392341952,-0.229580199,Pothole
1492639124,40.4525789,-79.9497048,3.650000095,-0.065795898,-0.971206665,0.259613037,0.068068001,0.263358669,-0.005313805,Pothole
1492639124,40.4525789,-79.9497048,3.650000095,0.168197632,-0.901870728,0.156646729,-0.07592406,0.348314306,-0.09763548,Pothole
1492639124,40.4525789,-79.9497048,3.650000095,0.097335815,-0.894515991,0.243865967,-0.041357028,0.253429339,-0.029865221,Pothole
1492639124,40.4525789,-79.9497048,3.650000095,0.41519165,-0.995178223,0.191131592,-0.091814609,0.469678818,-0.115170798,Pothole
1492639124,40.45257315,-79.94971529,4.090000153,0.27784729,-0.93548584,0.217941284,-0.007560182,0.361696691,-0.105499795,Pothole
1492639125,40.45257315,-79.94971529,4.090000153,0.125991821,-0.964035034,0.260650635,-0.05543716,0.325838026,-0.128287932,Pothole
1492639125,40.45257315,-79.94971529,4.090000153,0.269866943,-0.990356445,0.196334839,0.062848205,0.347432534,0.032799492,Pothole
1492639125,40.45257315,-79.94971529,4.090000153,-0.135299683,-1.04901123,0.275192261,0.039758598,0.135905105,0.048035969,Pothole
1492639125,40.45257315,-79.94971529,4.090000153,0.120758057,-0.884643555,0.070770264,-0.049396312,0.191762512,-0.175859712,Pothole
1492639125,40.45251128,-79.94970435,4.71999979,0.306228638,-0.963729858,0.255111694,0.042197787,0.158238108,0.115174793,Pothole
1492639126,40.45251128,-79.94970435,4.71999979,0.092071533,-0.934539795,0.207794189,0.015813052,0.126480178,0.003034139,Pothole
1492639126,40.45251128,-79.94970435,4.71999979,0.211959839,-0.980773926,0.192657471,-0.020484769,0.289443266,-0.134233439,Pothole
1492639126,40.45251128,-79.94970435,4.71999979,0.208328247,-0.848999023,0.328292847,-0.112648785,0.162404623,-0.083670929,Pothole
1492639126,40.45247154,-79.94968666,4.860000134,0.09286499,-0.90007019,0.246749878,-0.02609312,0.200147741,-0.007180948,Pothole
1492639126,40.45247154,-79.94968666,4.860000134,0.064468384,-0.973449707,0.213546753,-0.024038225,0.174603765,-0.015623701,Pothole
1492639127,40.45247154,-79.94968666,4.860000134,0.203704834,-0.988189697,0.268081665,-0.002450907,0.206349444,-0.174350499,Pothole
1492639127,40.45247154,-79.94968666,4.860000134,0.160491943,-0.896331787,0.173324585,0.02497832,-0.006538593,0.038656316,Pothole
1492639127,40.45247154,-79.94968666,4.860000134,-0.046676636,-0.961090088,0.24887085,-0.02718688,0.004438691,0.043424972,Pothole
1492639127,40.45247154,-79.94968666,4.860000134,-0.081817627,-0.973754883,0.24710083,-0.046584546,0.012001802,-0.01330249,Pothole
1492639127,40.45242537,-79.94966612,5.449999809,0.026931763,-0.937210083,0.245834351,0.041840924,-0.084304495,0.009175655,Pothole
1492639128,40.45242537,-79.94966612,5.449999809,-0.006759644,-0.914413452,0.185531616,-0.010723751,-0.091404749,0.033178726,Pothole
1492639128,40.45242537,-79.94966612,5.449999809,0.007278442,-0.937789917,0.251800537,-0.014003966,-0.013736585,0.004156928,Pothole
1492639128,40.45242537,-79.94966612,5.449999809,0.003250122,-0.952575684,0.334762573,0.015942481,-0.073493925,0.039802807,Pothole
1492639128,40.45237807,-79.94964507,5.940000057,0.082946777,-0.934249878,0.281478882,-0.057391654,0.014201573,-0.000624245,Pothole
1492639128,40.45237807,-79.94964507,5.940000057,0.028213501,-0.942810059,0.201400757,-0.015027419,-0.017985658,-0.001173655,Pothole
1492639129,40.45237807,-79.94964507,5.940000057,-0.02204895,-0.919891357,0.286392212,-0.04397891,-0.050773166,-0.004584099,Pothole
1492639129,40.45237807,-79.94964507,5.940000057,0.074829102,-0.949707031,0.230285645,0.039794551,-0.005582518,-0.031564584,Pothole
1492639129,40.45237807,-79.94964507,5.940000057,0.042327881,-0.915054321,0.256820679,0.026165025,-0.085257374,0.064460749,Pothole
1492639129,40.45232413,-79.94962107,6.429999828,0.068115234,-0.887939453,0.316741943,-0.114699419,0.057124539,0.008274175,Pothole
1492639129,40.45232413,-79.94962107,6.429999828,0.066940308,-0.874008179,0.403320313,-0.091417798,-0.006853911,-0.015845276,Pothole
1492639130,40.45232413,-79.94962107,6.429999828,0.13973999,-0.961990356,0.35105896,-0.071107999,0.073862773,0.022538066,Pothole
1492639130,40.45232413,-79.94962107,6.429999828,-0.012130737,-0.831237793,0.230102539,0.043380231,0.046516369,-0.031662322,Pothole
1492639130,40.45232413,-79.94962107,6.429999828,0.080490112,-0.921142578,0.358444214,-0.09228519,-0.098313521,0.075010063,Pothole
1492639130,40.45232413,-79.94962107,6.429999828,-0.170822144,-0.906845093,0.212127686,0.029079589,-0.075698756,0.090055059,Pothole
1492639130,40.4522627,-79.94959373,7.659999847,0.074310303,-0.99597168,0.281555176,-0.085724492,-0.099434446,-0.015548067,Pothole
1492639131,40.4522627,-79.94959373,7.659999847,0.0209198,-0.998596191,0.213562012,-0.028627916,0.051247741,0.018766497,Pothole
1492639131,40.4522627,-79.94959373,7.659999847,0.006668091,-0.886505127,0.234359741,-0.095711346,0.01976971,0.001101483,Pothole
1492639131,40.4522627,-79.94959373,7.659999847,0.128799438,-1.087493896,0.169876099,0.064304421,0.130400884,-0.113763051,Pothole
1492639131,40.45219457,-79.94956342,8.220000267,0.131698608,-1.06111145,0.105560303,-0.076456958,0.068578795,0.021430724,Pothole
1492639131,40.45219457,-79.94956342,8.220000267,-0.116744995,-0.871276855,0.143356323,-0.037936463,-0.132697061,0.131098366,Pothole
1492639132,40.45219457,-79.94956342,8.220000267,-0.015213013,-0.917129517,0.226394653,0.072405225,-0.069606242,0.040370859,Pothole
1492639132,40.45219457,-79.94956342,8.220000267,-0.042541504,-0.948074341,0.281967163,-0.01381142,-0.038195323,0.054334079,Pothole
1492639132,40.45219457,-79.94956342,8.220000267,0.001586914,-1.026916504,0.253204346,0.095507615,-0.076148031,-0.016951287,Pothole
1492639132,40.4521209,-79.94953064,8.159999847,0.0365448,-1.015182495,0.239456177,0.091939778,-0.071877653,-0.064978467,Pothole
1492639132,40.4521209,-79.94953064,8.159999847,-0.21232605,-0.927154541,0.43208313,-0.073532807,-0.102685899,0.102934905,Pothole
1492639133,40.4521209,-79.94953064,8.159999847,-0.036407471,-1.037521362,0.319656372,0.110435698,-0.025194835,-0.068108214,Pothole
1492639133,40.4521209,-79.94953064,8.159999847,0.195022583,-1.023025513,0.166946411,0.050871171,0.087943438,-0.089268094,Pothole
1492639133,40.4521209,-79.94953064,8.159999847,0.04598999,-1.039321899,0.264648438,0.043106991,0.040113598,-0.170256421,Pothole
1492639133,40.4521209,-79.94953064,8.159999847,0.550064087,-0.283340454,0.386535645,0.677419232,-0.042693135,0.045429533,Pothole
1492639133,40.45204979,-79.949499,8.529999733,0.302490234,-1.3230896,0.479568481,0.387852661,0.261237461,-0.261124276,Pothole
1492639134,40.45204979,-79.949499,8.529999733,-0.538116455,-1.009048462,0.421569824,0.476905839,-0.333833901,0.52925533,Pothole
1492639134,40.45204979,-79.949499,8.529999733,0.212677002,0.128890991,1.197723389,-0.78318774,-0.103408415,-0.022678681,Pothole
1492639134,40.45204979,-79.949499,8.529999733,-0.564178467,-0.858123779,0.26348877,-0.277688073,0.066621372,-0.447626247,Pothole
1492639134,40.45204979,-79.949499,8.529999733,0.475112915,-1.423019409,0.088241577,-0.162929,-0.457418157,-0.094314518,Pothole
1492639134,40.45197268,-79.94946468,9.380000114,-0.220825195,-1.073898315,0.249786377,-0.020442957,-0.25724485,0.262743212,Pothole
1492639135,40.45197268,-79.94946468,9.380000114,-0.18888855,-0.902511597,0.293960571,-0.065345717,-0.308038522,0.092886531,Pothole
1492639135,40.45197268,-79.94946468,9.380000114,0.095077515,-1.125213623,0.288970947,0.163742329,0.035107387,0.037837128,Pothole
1492639135,40.45197268,-79.94946468,9.380000114,-0.144683838,-1.155334473,0.436523438,0.051794755,-0.136463037,0.186403699,Pothole
1492639135,40.45197268,-79.94946468,9.380000114,-0.174468994,-0.804458618,0.446762085,-0.207463178,-0.260313078,0.076381324,Pothole
1492639135,40.45189037,-79.94942806,10.18999958,-0.098419189,-0.954086304,0.46522522,0.046478286,0.077323018,-0.162854431,Pothole
1492639136,40.45189037,-79.94942806,10.18999958,0.527740479,-1.102661133,0.201751709,-0.334606484,0.187245258,-0.114795292,Pothole
1492639136,40.45189037,-79.94942806,10.18999958,0.278884888,-0.860046387,0.23487854,-0.307001487,0.347689795,-0.098933505,Pothole
1492639136,40.45189037,-79.94942806,10.18999958,-0.046966553,-0.871963501,0.33253479,-0.02534557,-0.097683417,0.086355928,Pothole
1492639136,40.45189037,-79.94942806,10.18999958,-0.129150391,-1.039169312,0.242584229,0.007373228,-0.139406363,-0.069934877,Pothole
1492639136,40.45179706,-79.94938654,11.5,0.141036987,-0.986984253,0.314926147,0.006258961,0.04780747,-0.119475265,Pothole
1492639137,40.45179706,-79.94938654,11.5,0.07434082,-0.854095459,0.212478638,-0.147485861,0.06264181,-0.082703935,Pothole
1492639137,40.45179706,-79.94938654,11.5,0.271392822,-0.993713379,0.130905151,-0.043280096,0.185355479,-0.081953723,Pothole
1492639137,40.45179706,-79.94938654,11.5,0.053207397,-1.003616333,0.173416138,0.011498997,0.092479334,0.065984343,Pothole
1492639137,40.45179706,-79.94938654,11.5,0.066360474,-0.998718262,0.422897339,-0.15809483,-0.193630986,0.007410778,Pothole
1492639137,40.45169564,-79.94934141,12.15999985,0.022293091,-1.030426025,0.096817017,0.137905938,-0.093430083,0.065625882,Pothole
1492639138,40.45169564,-79.94934141,12.15999985,-0.024520874,-0.905014038,0.332809448,0.042983154,-0.109819442,0.144662378,Pothole
1492639138,40.45169564,-79.94934141,12.15999985,0.029373169,-1.051559448,0.16633606,-0.135832667,-0.068244835,0.083016324,Pothole
1492639138,40.45169564,-79.94934141,12.15999985,0.004898071,-0.951202393,0.146255493,0.034488202,0.033812825,-0.011462512,Pothole
1492639138,40.45169564,-79.94934141,12.15999985,0.091995239,-1.083557129,0.144439697,0.024006,-0.006545784,-0.045584529,Pothole
1492639138,40.4515999,-79.9492988,11.80000019,-0.099609375,-0.99810791,0.193740845,-0.019481023,0.077763771,-0.089962114,Pothole
1492639139,40.4515999,-79.9492988,11.80000019,0.010528564,-1.028823853,0.215438843,-0.117633956,0.03905579,-0.020497019,Pothole
1492639139,40.4515999,-79.9492988,11.80000019,0.152038574,-1.179504395,0.085342407,0.069966036,0.025080053,0.036902891,Pothole
1492639139,40.4515999,-79.9492988,11.80000019,-0.083633423,-1.100189209,0.215576172,0.019562516,0.077513967,-0.063972591,Pothole
1492639139,40.4515999,-79.9492988,11.80000019,-0.076370239,-1.045593262,0.121704102,0.063339824,-0.046161903,-0.062139005,Pothole
1492639139,40.45150735,-79.94925762,10.96000004,-0.06413269,-1.003616333,0.315673828,0.010021475,-0.098992361,-0.008171643,Pothole
1492639140,40.45150735,-79.94925762,10.96000004,0.197860718,-0.866165161,0.242736816,-0.151367685,0.210495187,-0.262249196,Pothole
1492639140,40.45150735,-79.94925762,10.96000004,0.228439331,-1.033615112,0.102233887,0.441316153,0.00993945,0.283840774,Pothole
1492639140,40.45150735,-79.94925762,10.96000004,-0.047363281,-0.837310791,0.43598938,-0.251210393,0.186711295,-0.061695589,Pothole
1492639140,40.45150735,-79.94925762,10.96000004,-0.033309937,-0.768997192,-0.097610474,-0.332075682,-0.102082959,0.00859189,Pothole
1492639140,40.45142042,-79.94921819,10.52000046,0.466323853,-1.042053223,0.059661865,0.014941399,0.480670749,-0.205800567,Pothole
1492639141,40.45142042,-79.94921819,10.52000046,-0.128585815,-0.939910889,0.290435791,0.13621563,-0.118918398,0.252261809,Pothole
1492639141,40.45142042,-79.94921819,10.52000046,-0.28263855,-0.836196899,0.722854614,-0.086212117,-0.201514209,0.196886967,Pothole
1492639141,40.45142042,-79.94921819,10.52000046,-0.143112183,-0.472686768,0.378738403,-0.311966152,-0.602129271,0.210536466,Pothole
1492639141,40.45142042,-79.94921819,10.52000046,-0.225738525,-0.873001099,0.209564209,0.059425777,-0.277989277,0.174052491,Pothole
1492639141,40.45133056,-79.94917695,10.64999962,-0.055145264,-1.017456055,0.130889893,0.180494944,-0.294730174,0.189196024,Pothole
1492639142,40.45133056,-79.94917695,10.64999962,-0.049255371,-0.927322388,0.177185059,0.039259522,-0.132141526,0.093503586,Pothole
1492639142,40.45133056,-79.94917695,10.64999962,0.16444397,-1.101715088,0.092712402,0.058880361,0.094280164,-0.048686313,Pothole
1492639142,40.45133056,-79.94917695,10.64999962,0.047454834,-0.924118042,0.160171509,-0.059435098,-0.02832618,0.047444215,Pothole
1492639142,40.45133056,-79.94917695,10.64999962,0.132797241,-0.94670105,0.163208008,0.020899157,-0.011833224,0.022635005,Pothole
1492639142,40.4512426,-79.94913658,10.14999962,0.114303589,-1.044525146,0.119155884,0.014575214,0.095639707,-0.001163801,Pothole
1492639143,40.4512426,-79.94913658,10.14999962,0.032836914,-0.789108276,0.306350708,-0.066264242,-0.018702315,0.084666951,Pothole
1492639143,40.4512426,-79.94913658,10.14999962,-0.739089966,-1.25743103,0.373519897,-0.111684987,-0.392823185,0.164067235,Pothole
1492639143,40.4512426,-79.94913658,10.14999962,-0.179351807,-0.763839722,-0.276809692,0.31868371,-0.049947853,-0.046720368,Pothole
1492639143,40.4512426,-79.94913658,10.14999962,-0.186294556,-0.79586792,0.08770752,0.038961248,-0.35015535,0.384073369,Pothole
1492639143,40.45115505,-79.94909639,10.47999954,-0.151580811,-0.873718262,0.404251099,-0.00634365,-0.155263357,-0.010326407,Pothole
1492639144,40.45115505,-79.94909639,10.47999954,-0.348464966,-0.840087891,0.466217041,0.118339161,-0.203947007,-0.043043075,Pothole
1492639144,40.45115505,-79.94909639,10.47999954,0.00630188,-1.103408813,0.339996338,0.027671043,-0.112943863,-0.060199425,Pothole
1492639144,40.45115505,-79.94909639,10.47999954,0.39692688,-1.198532104,0.08531189,0.025790318,0.561435104,-0.253877549,Pothole
1492639144,40.45115505,-79.94909639,10.47999954,0.334106445,-0.999557495,0.193496704,-0.264777335,0.217609556,-0.297547532,Pothole
1492639144,40.4510548,-79.94905037,12.07999992,-0.004959106,-1.375839233,0.048110962,0.358227391,-0.039556198,0.026160231,Pothole
1492639145,40.4510548,-79.94905037,12.07999992,-0.781097412,-0.053009033,0.15612793,-0.359679879,-0.754935595,0.577219926,Pothole
1492639145,40.4510548,-79.94905037,12.07999992,0.115463257,-0.914520264,-0.108474731,0.228815871,-0.503506557,0.35655892,Pothole
1492639145,40.4510548,-79.94905037,12.07999992,-0.19720459,-0.758483887,0.289382935,0.116305571,-0.517697211,0.166723738,Pothole
1492639145,40.4510548,-79.94905037,12.07999992,-0.225509644,-0.205093384,0.399017334,-0.129248268,-0.278899811,0.109216503,Pothole
1492639145,40.45095055,-79.94900252,11.92000008,0.08972168,-0.741287231,0.146362305,-0.048573928,0.38962899,-0.050548662,Pothole
1492639146,40.45095055,-79.94900252,11.92000008,0.160110474,-0.981185913,-0.029937744,-0.276811893,0.227303196,-0.036473323,Pothole
1492639146,40.45095055,-79.94900252,11.92000008,0.03578186,-1.52381897,-0.078674316,0.078523038,-0.222794464,0.20929064,Pothole
1492639146,40.45095055,-79.94900252,11.92000008,0.329727173,-1.057144165,-0.275741577,-0.047913197,-0.585749232,0.300627211,Pothole
1492639146,40.45095055,-79.94900252,11.92000008,-0.494094849,-1.067398071,-0.047561646,0.116087725,-0.592172511,0.064557155,Pothole
1492639146,40.45085471,-79.94895853,11.01000023,-0.57975769,-0.837982178,0.132324219,0.00219045,-0.476503169,0.356301393,Pothole
1492639147,40.45085471,-79.94895853,11.01000023,-0.013931274,-0.855316162,-0.002761841,-0.080279659,-0.37280873,0.214449183,Pothole
1492639147,40.45085471,-79.94895853,11.01000023,0.420913696,-1.091766357,-0.487548828,-0.104945857,-0.413095966,0.050103647,Pothole
1492639147,40.45085471,-79.94895853,11.01000023,0.198287964,-0.816390991,-0.137191772,-0.126568595,0.051884503,0.01669589,Pothole
1492639147,40.45085471,-79.94895853,11.01000023,0.683868408,-0.751861572,-0.386627197,-0.321000926,0.287132974,-0.198078465,Pothole
1492639147,40.45078405,-79.9489261,7.960000038,0.243255615,-0.820449829,-0.105361938,-0.337082424,0.321280824,-0.171675886,Pothole
1492639148,40.45078405,-79.9489261,7.960000038,0.092330933,-1.053283691,-0.17829895,0.016599749,0.012675315,0.116354573,Pothole
1492639148,40.45078405,-79.9489261,7.960000038,-0.114318848,-1.078979492,-0.09803772,0.04568786,-0.138566668,0.087188698,Pothole
1492639148,40.45078405,-79.9489261,7.960000038,0.003509521,-1.011154175,-0.118652344,-0.009798302,-0.016954749,0.00634072,Pothole
1492639148,40.45078405,-79.9489261,7.960000038,0.140686035,-0.968185425,-0.10307312,-0.089415634,0.039929839,-0.058594071,Pothole
1492639148,40.4507501,-79.94891052,3.890000105,0.127731323,-1.070907593,-0.061416626,-0.034952391,0.02469283,-0.000421578,Pothole
1492639149,40.4507501,-79.94891052,3.890000105,0.029785156,-1.013122559,-0.012145996,-0.031465248,0.024666731,-0.021710089,Pothole
1492639149,40.4507501,-79.94891052,3.890000105,0.074508667,-0.985931396,0.078704834,-0.014461497,0.020301277,-0.021524733,Pothole
1492639149,40.4507501,-79.94891052,3.890000105,0.056777954,-0.990783691,0.132965088,-0.013874803,-0.006292251,-0.001192031,Pothole
1492639149,40.4507501,-79.94891052,3.890000105,0.059875488,-0.984848022,0.148620605,-0.019259715,-0.010511763,0.000896154,Pothole
